workerid,trial_name,trial_number,RT,check_index,property,tested_on,response,correct
worker_169,memory_check_catch,0,10857,0,cheap gold,1,1,1
worker_169,memory_check_catch,1,10857,1,shiny toaster,0,1,0
worker_169,memory_check_catch,2,10857,2,long snake,1,1,1
worker_169,memory_check_catch,3,10857,3,purple patio door,0,1,0
worker_169,memory_check_catch,4,10858,4,dark day,1,1,1
worker_169,memory_check_catch,5,10858,5,light blue paint,1,1,1
worker_169,memory_check_catch,6,10858,6,green carpet,0,1,0
worker_169,memory_check_catch,7,10858,7,wild ice cream,0,1,0
worker_169,memory_check_catch,8,10858,8,big monkey,1,1,1
worker_169,memory_check_catch,9,10858,9,beautiful giraffe,0,1,0
worker_394,memory_check_catch,0,25213,0,wild chicken,0,0,1
worker_394,memory_check_catch,1,25213,1,green country lane,0,0,1
worker_394,memory_check_catch,2,25213,2,warm winter,1,1,1
worker_394,memory_check_catch,3,25213,3,cheap gold,1,1,1
worker_394,memory_check_catch,4,25213,4,quick rabbit,1,1,1
worker_394,memory_check_catch,5,25213,5,purple cheesecake,0,0,1
worker_394,memory_check_catch,6,25213,6,shiny jaguar,0,0,1
worker_394,memory_check_catch,7,25213,7,beautiful stream,0,0,1
worker_394,memory_check_catch,8,25213,8,cold coffee,1,1,1
worker_394,memory_check_catch,9,25213,9,hard pillow,1,1,1
worker_245,memory_check_catch,0,15664,0,light poodle,1,1,1
worker_245,memory_check_catch,1,15664,1,wild instant pot,0,1,0
worker_245,memory_check_catch,2,15664,2,beautiful sunflower,0,1,0
worker_245,memory_check_catch,3,15664,3,heavy fish,1,1,1
worker_245,memory_check_catch,4,15664,4,weak thunderstorm,1,1,1
worker_245,memory_check_catch,5,15664,5,green dachshund,0,0,1
worker_245,memory_check_catch,6,15664,6,cold shopping mall,1,1,1
worker_245,memory_check_catch,7,15664,7,shiny kid,0,1,0
worker_245,memory_check_catch,8,15664,8,purple bonsai tree,0,1,0
worker_245,memory_check_catch,9,15664,9,loud adult,1,1,1
worker_268,memory_check_catch,0,26641,0,green soup,0,0,1
worker_268,memory_check_catch,1,26641,1,wild chocolate fondue,0,1,0
worker_268,memory_check_catch,2,26641,2,slow walker,1,1,1
worker_268,memory_check_catch,3,26641,3,short alpine tree,1,1,1
worker_268,memory_check_catch,4,26641,4,light spaniel,1,1,1
worker_268,memory_check_catch,5,26641,5,beautiful child,0,0,1
worker_268,memory_check_catch,6,26641,6,strong cyclist,1,1,1
worker_268,memory_check_catch,7,26641,7,shiny novel,0,0,1
worker_268,memory_check_catch,8,26641,8,purple Japanese restaurant,0,0,1
worker_268,memory_check_catch,9,26641,9,big flower,1,1,1
worker_296,memory_check_catch,0,6200,0,wild coffee,0,0,1
worker_296,memory_check_catch,1,6200,1,beautiful mushroom,0,0,1
worker_296,memory_check_catch,2,6200,2,short sunflower,1,0,0
worker_296,memory_check_catch,3,6200,3,green printer,0,1,0
worker_296,memory_check_catch,4,6200,4,expensive Korean restaurant,1,0,0
worker_296,memory_check_catch,5,6200,5,quiet crow,1,0,0
worker_296,memory_check_catch,6,6200,6,purple watercolor,0,0,1
worker_296,memory_check_catch,7,6200,7,long hamster,1,0,0
worker_296,memory_check_catch,8,6200,8,shiny golfer,0,0,1
worker_296,memory_check_catch,9,6200,9,warm freezer,1,0,0
worker_219,memory_check_catch,0,39999,0,hot chocolate fondue,1,0,0
worker_219,memory_check_catch,1,39999,1,long opera,1,1,1
worker_219,memory_check_catch,2,39999,2,shiny tiger,0,0,1
worker_219,memory_check_catch,3,39999,3,beautiful skyscraper,0,0,1
worker_219,memory_check_catch,4,39999,4,short jockey,1,1,1
worker_219,memory_check_catch,5,39999,5,green strawberries,0,0,1
worker_219,memory_check_catch,6,39999,6,heavy orange,1,1,1
worker_219,memory_check_catch,7,39999,7,purple glider,0,0,1
worker_219,memory_check_catch,8,39999,8,wild coffee,0,0,1
worker_219,memory_check_catch,9,39999,9,cold shopping mall,1,1,1
worker_226,memory_check_catch,0,21430,0,wild sauna,0,1,0
worker_226,memory_check_catch,1,21430,1,shiny marshmallow,0,1,0
worker_226,memory_check_catch,2,21430,2,heavy laptop,1,1,1
worker_226,memory_check_catch,3,21430,3,purple monkey,0,1,0
worker_226,memory_check_catch,4,21430,4,beautiful freezer,0,1,0
worker_226,memory_check_catch,5,21430,5,quiet party,1,1,1
worker_226,memory_check_catch,6,21430,6,loud finch,1,1,1
worker_226,memory_check_catch,7,21430,7,green baby,0,1,0
worker_226,memory_check_catch,8,21430,8,loud rowboat,1,1,1
worker_226,memory_check_catch,9,21430,9,cheap bottle of top-shelf liquor,1,1,1
worker_124,memory_check_catch,0,30738,0,hard melon,1,1,1
worker_124,memory_check_catch,1,30738,1,purple wrestler,0,0,1
worker_124,memory_check_catch,2,30738,2,light dahlia,1,0,0
worker_124,memory_check_catch,3,30738,3,cheap Korean restaurant,1,1,1
worker_124,memory_check_catch,4,30738,4,expensive gold,1,1,1
worker_124,memory_check_catch,5,30738,5,shiny tree,0,0,1
worker_124,memory_check_catch,6,30738,6,beautiful oven,0,0,1
worker_124,memory_check_catch,7,30738,7,wild jolly rancher,0,0,1
worker_124,memory_check_catch,8,30738,8,green poem,0,0,1
worker_124,memory_check_catch,9,30738,9,short bonsai tree,1,1,1
worker_248,memory_check_catch,0,33362,0,big tuna,1,1,1
worker_248,memory_check_catch,1,33362,1,fast cheetah,1,1,1
worker_248,memory_check_catch,2,33362,2,wild ant,0,0,1
worker_248,memory_check_catch,3,33362,3,beautiful condo,0,0,1
worker_248,memory_check_catch,4,33362,4,narrow mouse den,1,1,1
worker_248,memory_check_catch,5,33362,5,shiny pantry,0,0,1
worker_248,memory_check_catch,6,33362,6,hot ice rink,1,0,0
worker_248,memory_check_catch,7,33362,7,green cell phone,0,0,1
worker_248,memory_check_catch,8,33362,8,soft carpet,1,1,1
worker_248,memory_check_catch,9,33362,9,purple wood,0,0,1
worker_001,memory_check_catch,0,15027,0,shirt: purple/orange,0,0,1
worker_001,memory_check_catch,1,15027,1,mushroom: hard/soft,1,1,1
worker_001,memory_check_catch,2,15027,2,watch: beautiful/ugly,0,0,1
worker_001,memory_check_catch,3,15027,3,watercolor: strong/weak,1,1,1
worker_001,memory_check_catch,4,15027,4,parrot: loud/quiet,1,1,1
worker_001,memory_check_catch,5,15027,5,animal: wild/tame,0,0,1
worker_001,memory_check_catch,6,15027,6,motorcycle: heavy/light,1,1,1
worker_001,memory_check_catch,7,15027,7,rock concert: loud/quiet,1,1,1
worker_001,memory_check_catch,8,15027,8,guitar: green/blue,0,0,1
worker_001,memory_check_catch,9,15027,9,necklace: shiny/dull,0,0,1
worker_144,memory_check_catch,0,17606,0,hamster: long/short,1,1,1
worker_144,memory_check_catch,1,17606,1,shirt: purple/orange,0,0,1
worker_144,memory_check_catch,2,17606,2,powerboat: loud/quiet,1,1,1
worker_144,memory_check_catch,3,17606,3,necklace: shiny/dull,0,0,1
worker_144,memory_check_catch,4,17606,4,wall paint: strong/weak,1,1,1
worker_144,memory_check_catch,5,17606,5,watch: beautiful/ugly,0,0,1
worker_144,memory_check_catch,6,17606,6,salad: warm/cold,1,1,1
worker_144,memory_check_catch,7,17606,7,guitar: green/blue,0,0,1
worker_144,memory_check_catch,8,17606,8,animal: wild/tame,0,0,1
worker_144,memory_check_catch,9,17606,9,choral concert: loud/quiet,1,1,1
worker_337,memory_check_catch,0,12790,0,suit: expensive/cheap,1,1,1
worker_337,memory_check_catch,1,12790,1,watch: beautiful/ugly,0,0,1
worker_337,memory_check_catch,2,12790,2,sauna: hot/cold,1,1,1
worker_337,memory_check_catch,3,12790,3,orange: heavy/light,1,1,1
worker_337,memory_check_catch,4,12790,4,panther: light/dark,1,1,1
worker_337,memory_check_catch,5,12790,5,guitar: green/blue,0,0,1
worker_337,memory_check_catch,6,12790,6,shirt: purple/orange,0,0,1
worker_337,memory_check_catch,7,12790,7,animal: wild/tame,0,0,1
worker_337,memory_check_catch,8,12790,8,necklace: shiny/dull,0,0,1
worker_337,memory_check_catch,9,12790,9,garlic: expensive/cheap,1,1,1
worker_051,memory_check_catch,0,15370,0,condo: strong/weak,1,0,0
worker_051,memory_check_catch,1,15370,1,plum: heavy/light,1,0,0
worker_051,memory_check_catch,2,15370,2,blanket: hard/soft,1,0,0
worker_051,memory_check_catch,3,15370,3,elderly person: quick/slow,1,0,0
worker_051,memory_check_catch,4,15370,4,animal: wild/tame,0,0,1
worker_051,memory_check_catch,5,15370,5,watch: beautiful/ugly,0,0,1
worker_051,memory_check_catch,6,15370,6,necklace: shiny/dull,0,0,1
worker_051,memory_check_catch,7,15370,7,teenager: tall/short,1,0,0
worker_051,memory_check_catch,8,15370,8,shirt: purple/orange,0,0,1
worker_051,memory_check_catch,9,15370,9,guitar: green/blue,0,1,0
worker_201,memory_check_catch,0,31254,0,shirt: purple/orange,0,1,0
worker_201,memory_check_catch,1,31254,1,turtle: quick/slow,1,0,0
worker_201,memory_check_catch,2,31254,2,basketball player: tall/short,1,1,1
worker_201,memory_check_catch,3,31254,3,sauna: hot/cold,1,0,0
worker_201,memory_check_catch,4,31254,4,printer: heavy/light,1,1,1
worker_201,memory_check_catch,5,31254,5,guitar: green/blue,0,0,1
worker_201,memory_check_catch,6,31254,6,animal: wild/tame,0,1,0
worker_201,memory_check_catch,7,31254,7,watch: beautiful/ugly,0,0,1
worker_201,memory_check_catch,8,31254,8,necklace: shiny/dull,0,0,1
worker_201,memory_check_catch,9,31254,9,pencil: light/dark,1,0,0
worker_033,memory_check_catch,0,14659,0,guitar: green/blue,0,0,1
worker_033,memory_check_catch,1,14659,1,necklace: shiny/dull,0,0,1
worker_033,memory_check_catch,2,14659,2,shirt: purple/orange,0,0,1
worker_033,memory_check_catch,3,14659,3,snake: long/short,1,1,1
worker_033,memory_check_catch,4,14659,4,milkshake: hot/cold,1,1,1
worker_033,memory_check_catch,5,14659,5,pencil: light/dark,1,1,1
worker_033,memory_check_catch,6,14659,6,sloth: fast/slow,1,1,1
worker_033,memory_check_catch,7,14659,7,animal: wild/tame,0,0,1
worker_033,memory_check_catch,8,14659,8,sprinting race: long/short,1,0,0
worker_033,memory_check_catch,9,14659,9,watch: beautiful/ugly,0,0,1
worker_263,memory_check_catch,0,24372,0,tractor: loud/quiet,1,1,1
worker_263,memory_check_catch,1,24372,1,golfer: strong/weak,1,1,1
worker_263,memory_check_catch,2,24372,2,shirt: purple/orange,0,0,1
worker_263,memory_check_catch,3,24372,3,watch: beautiful/ugly,0,0,1
worker_263,memory_check_catch,4,24372,4,necklace: shiny/dull,0,0,1
worker_263,memory_check_catch,5,24372,5,guitar: green/blue,0,0,1
worker_263,memory_check_catch,6,24372,6,mouse: big/small,1,1,1
worker_263,memory_check_catch,7,24372,7,creek: wide/narrow,1,1,1
worker_263,memory_check_catch,8,24372,8,back door: wide/narrow,1,1,1
worker_263,memory_check_catch,9,24372,9,animal: wild/tame,0,0,1
worker_122,memory_check_catch,0,13896,0,Japanese restaurant: expensive/cheap,1,1,1
worker_122,memory_check_catch,1,13896,1,truck: heavy/light,1,1,1
worker_122,memory_check_catch,2,13896,2,shirt: purple/orange,0,0,1
worker_122,memory_check_catch,3,13896,3,acoustic guitar: loud/quiet,1,1,1
worker_122,memory_check_catch,4,13896,4,snake: long/short,1,1,1
worker_122,memory_check_catch,5,13896,5,necklace: shiny/dull,0,0,1
worker_122,memory_check_catch,6,13896,6,guitar: green/blue,0,0,1
worker_122,memory_check_catch,7,13896,7,watch: beautiful/ugly,0,0,1
worker_122,memory_check_catch,8,13896,8,animal: wild/tame,0,0,1
worker_122,memory_check_catch,9,13896,9,sitcom: long/short,1,1,1
worker_032,memory_check_catch,0,13078,0,necklace: shiny/dull,0,1,0
worker_032,memory_check_catch,1,13078,1,fish: loud/quiet,1,1,1
worker_032,memory_check_catch,2,13078,2,restaurant: noisy/quiet,1,0,0
worker_032,memory_check_catch,3,13078,3,dusk: light/dark,1,1,1
worker_032,memory_check_catch,4,13078,4,sprinting race: long/short,1,0,0
worker_032,memory_check_catch,5,13078,5,fruit cake: light/dark,1,1,1
worker_032,memory_check_catch,6,13078,6,watch: beautiful/ugly,0,0,1
worker_032,memory_check_catch,7,13078,7,guitar: green/blue,0,0,1
worker_032,memory_check_catch,8,13078,8,animal: wild/tame,0,0,1
worker_032,memory_check_catch,9,13078,9,shirt: purple/orange,0,0,1
worker_282,memory_check_catch,0,30064,0,watch: beautiful/ugly,0,0,1
worker_282,memory_check_catch,1,30064,1,tractor: loud/quiet,1,0,0
worker_282,memory_check_catch,2,30064,2,necklace: shiny/dull,0,0,1
worker_282,memory_check_catch,3,30064,3,shirt: purple/orange,0,1,0
worker_282,memory_check_catch,4,30064,4,blue paint: light/dark,1,1,1
worker_282,memory_check_catch,5,30064,5,guitar: green/blue,0,1,0
worker_282,memory_check_catch,6,30064,6,animal: wild/tame,0,0,1
worker_282,memory_check_catch,7,30064,7,apartment: expensive/cheap,1,0,0
worker_282,memory_check_catch,8,30064,8,dusk: light/dark,1,0,0
worker_282,memory_check_catch,9,30064,9,cat: quick/slow,1,0,0
worker_221,memory_check_catch,0,12837,0,refrigerator: big/small,1,1,1
worker_221,memory_check_catch,1,12837,1,guitar: green/blue,0,0,1
worker_221,memory_check_catch,2,12837,2,limousine: long/short,1,1,1
worker_221,memory_check_catch,3,12837,3,animal: wild/tame,0,0,1
worker_221,memory_check_catch,4,12837,4,necklace: shiny/dull,0,0,1
worker_221,memory_check_catch,5,12837,5,watch: beautiful/ugly,0,0,1
worker_221,memory_check_catch,6,12837,6,shirt: purple/orange,0,0,1
worker_221,memory_check_catch,7,12837,7,car: fast/slow,1,1,1
worker_221,memory_check_catch,8,12837,8,shirt: expensive/cheap,1,1,1
worker_221,memory_check_catch,9,12837,9,poem: long/short,1,1,1
worker_316,memory_check_catch,0,10927,0,necklace: shiny/dull,0,0,1
worker_316,memory_check_catch,1,10927,1,pantry: warm/cold,1,1,1
worker_316,memory_check_catch,2,10927,2,watch: beautiful/ugly,0,0,1
worker_316,memory_check_catch,3,10927,3,animal: wild/tame,0,0,1
worker_316,memory_check_catch,4,10927,4,conference center: noisy/quiet,1,1,1
worker_316,memory_check_catch,5,10928,5,moth: big/small,1,1,1
worker_316,memory_check_catch,6,10928,6,electric car: loud/quiet,1,1,1
worker_316,memory_check_catch,7,10928,7,shirt: purple/orange,0,0,1
worker_316,memory_check_catch,8,10928,8,guitar: green/blue,0,0,1
worker_316,memory_check_catch,9,10928,9,salt: expensive/cheap,1,1,1
worker_330,memory_check_catch,0,13320,0,woodpecker: loud/quiet,1,1,1
worker_330,memory_check_catch,1,13320,1,cheesecake: light/dark,1,1,1
worker_330,memory_check_catch,2,13320,2,shirt: purple/orange,0,0,1
worker_330,memory_check_catch,3,13320,3,watch: beautiful/ugly,0,0,1
worker_330,memory_check_catch,4,13320,4,bedboard: hard/soft,1,1,1
worker_330,memory_check_catch,5,13320,5,animal: wild/tame,0,0,1
worker_330,memory_check_catch,6,13320,6,guitar: green/blue,0,0,1
worker_330,memory_check_catch,7,13320,7,necklace: shiny/dull,0,0,1
worker_330,memory_check_catch,8,13320,8,side road: wide/narrow,1,1,1
worker_330,memory_check_catch,9,13320,9,bike: heavy/light,1,1,1
worker_287,memory_check_catch,0,59622,0,shirt: purple/orange,0,0,1
worker_287,memory_check_catch,1,59622,1,pen: light/dark,1,1,1
worker_287,memory_check_catch,2,59622,2,guitar: green/blue,0,0,1
worker_287,memory_check_catch,3,59622,3,refrigerator: big/small,1,1,1
worker_287,memory_check_catch,4,59622,4,animal: wild/tame,0,0,1
worker_287,memory_check_catch,5,59622,5,watch: beautiful/ugly,0,0,1
worker_287,memory_check_catch,6,59622,6,dahlia: light/dark,1,1,1
worker_287,memory_check_catch,7,59622,7,coat: expensive/cheap,1,1,1
worker_287,memory_check_catch,8,59622,8,redwood tree: tall/short,1,1,1
worker_287,memory_check_catch,9,59622,9,necklace: shiny/dull,0,0,1
worker_207,memory_check_catch,0,25104,0,choral concert: loud/quiet,1,1,1
worker_207,memory_check_catch,1,25104,1,necklace: shiny/dull,0,0,1
worker_207,memory_check_catch,2,25104,2,watch: beautiful/ugly,0,0,1
worker_207,memory_check_catch,3,25104,3,cheesecake: light/dark,1,1,1
worker_207,memory_check_catch,4,25104,4,shirt: purple/orange,0,0,1
worker_207,memory_check_catch,5,25104,5,guitar: green/blue,0,0,1
worker_207,memory_check_catch,6,25104,6,animal: wild/tame,0,0,1
worker_207,memory_check_catch,7,25104,7,great dane: big/small,1,1,1
worker_207,memory_check_catch,8,25104,8,poodle: light/dark,1,1,1
worker_207,memory_check_catch,9,25104,9,six-pack of beer: expensive/cheap,1,1,1
worker_278,memory_check_catch,0,33154,0,necklace: shiny/dull,0,0,1
worker_278,memory_check_catch,1,33154,1,watch: beautiful/ugly,0,0,1
worker_278,memory_check_catch,2,33154,2,guitar: green/blue,0,0,1
worker_278,memory_check_catch,3,33154,3,shirt: purple/orange,0,0,1
worker_278,memory_check_catch,4,33154,4,truck: heavy/light,1,1,1
worker_278,memory_check_catch,5,33154,5,couch: heavy/light,1,1,1
worker_278,memory_check_catch,6,33154,6,animal: wild/tame,0,0,1
worker_278,memory_check_catch,7,33154,7,cucumber: hard/soft,1,1,1
worker_278,memory_check_catch,8,33154,8,highway: long/short,1,1,1
worker_278,memory_check_catch,9,33154,9,song: long/short,1,1,1
worker_211,memory_check_catch,0,9472,0,jockey: tall/short,1,1,1
worker_211,memory_check_catch,1,9472,1,rooster: loud/quiet,1,1,1
worker_211,memory_check_catch,2,9472,2,necklace: shiny/dull,0,0,1
worker_211,memory_check_catch,3,9472,3,guitar: green/blue,0,0,1
worker_211,memory_check_catch,4,9472,4,panther: light/dark,1,0,0
worker_211,memory_check_catch,5,9472,5,elephant: heavy/light,1,1,1
worker_211,memory_check_catch,6,9472,6,shirt: purple/orange,0,0,1
worker_211,memory_check_catch,7,9472,7,animal: wild/tame,0,0,1
worker_211,memory_check_catch,8,9472,8,walker: fast/slow,1,1,1
worker_211,memory_check_catch,9,9472,9,watch: beautiful/ugly,0,0,1
worker_299,memory_check_catch,0,11855,0,guitar: green/blue,0,0,1
worker_299,memory_check_catch,1,11855,1,concert: noisy/quiet,1,1,1
worker_299,memory_check_catch,2,11855,2,trash can: heavy/light,1,1,1
worker_299,memory_check_catch,3,11855,3,poem: long/short,1,1,1
worker_299,memory_check_catch,4,11855,4,watch: beautiful/ugly,0,0,1
worker_299,memory_check_catch,5,11855,5,shirt: purple/orange,0,0,1
worker_299,memory_check_catch,6,11855,6,animal: wild/tame,0,0,1
worker_299,memory_check_catch,7,11855,7,tent: strong/weak,1,1,1
worker_299,memory_check_catch,8,11855,8,necklace: shiny/dull,0,0,1
worker_299,memory_check_catch,9,11855,9,muffin: hot/cold,1,1,1
worker_055,memory_check_catch,0,21528,0,watch: beautiful/ugly,0,0,1
worker_055,memory_check_catch,1,21528,1,guitar: green/blue,0,0,1
worker_055,memory_check_catch,2,21528,2,patio door: wide/narrow,1,1,1
worker_055,memory_check_catch,3,21528,3,elephant: big/small,1,1,1
worker_055,memory_check_catch,4,21528,4,car: fast/slow,1,1,1
worker_055,memory_check_catch,5,21528,5,animal: wild/tame,0,0,1
worker_055,memory_check_catch,6,21528,6,cell phone: heavy/light,1,1,1
worker_055,memory_check_catch,7,21528,7,fall: warm/cold,1,1,1
worker_055,memory_check_catch,8,21528,8,necklace: shiny/dull,0,0,1
worker_055,memory_check_catch,9,21528,9,shirt: purple/orange,0,0,1
worker_364,memory_check_catch,0,28436,0,watch: beautiful/ugly,0,0,1
worker_364,memory_check_catch,1,28436,1,melon: hard/soft,1,0,0
worker_364,memory_check_catch,2,28436,2,shirt: purple/orange,0,0,1
worker_364,memory_check_catch,3,28436,3,highway: long/short,1,1,1
worker_364,memory_check_catch,4,28436,4,glider: fast/slow,1,1,1
worker_364,memory_check_catch,5,28436,5,animal: wild/tame,0,0,1
worker_364,memory_check_catch,6,28436,6,thunderstorm: strong/weak,1,1,1
worker_364,memory_check_catch,7,28436,7,necklace: shiny/dull,0,0,1
worker_364,memory_check_catch,8,28436,8,song: long/short,1,1,1
worker_364,memory_check_catch,9,28436,9,guitar: green/blue,0,0,1
worker_230,memory_check_catch,0,21624,0,harp: loud/quiet,1,1,1
worker_230,memory_check_catch,1,21624,1,shirt: purple/orange,0,0,1
worker_230,memory_check_catch,2,21624,2,animal: wild/tame,0,0,1
worker_230,memory_check_catch,3,21624,3,watch: beautiful/ugly,0,0,1
worker_230,memory_check_catch,4,21624,4,bassett hound: long/short,1,1,1
worker_230,memory_check_catch,5,21624,5,tree: big/small,1,1,1
worker_230,memory_check_catch,6,21624,6,shopping mall: hot/cold,1,1,1
worker_230,memory_check_catch,7,21624,7,necklace: shiny/dull,0,0,1
worker_230,memory_check_catch,8,21624,8,guitar: green/blue,0,0,1
worker_230,memory_check_catch,9,21624,9,motorcycle: heavy/light,1,1,1
worker_372,memory_check_catch,0,19842,0,pantry: warm/cold,1,1,1
worker_372,memory_check_catch,1,19842,1,downtown street: wide/narrow,1,1,1
worker_372,memory_check_catch,2,19842,2,necklace: shiny/dull,0,0,1
worker_372,memory_check_catch,3,19842,3,animal: wild/tame,0,0,1
worker_372,memory_check_catch,4,19842,4,motorcycle: heavy/light,1,1,1
worker_372,memory_check_catch,5,19843,5,bronze: expensive/cheap,1,1,1
worker_372,memory_check_catch,6,19843,6,guitar: green/blue,0,0,1
worker_372,memory_check_catch,7,19843,7,shirt: purple/orange,0,0,1
worker_372,memory_check_catch,8,19843,8,watch: beautiful/ugly,0,0,1
worker_372,memory_check_catch,9,19843,9,basketball player: tall/short,1,1,1
worker_280,memory_check_catch,0,17359,0,crow: loud/quiet,1,1,1
worker_280,memory_check_catch,1,17359,1,guitar: green/blue,0,0,1
worker_280,memory_check_catch,2,17359,2,cyclist: strong/weak,1,1,1
worker_280,memory_check_catch,3,17359,3,necklace: shiny/dull,0,0,1
worker_280,memory_check_catch,4,17359,4,animal: wild/tame,0,0,1
worker_280,memory_check_catch,5,17359,5,ukelele: loud/quiet,1,1,1
worker_280,memory_check_catch,6,17359,6,alley: long/short,1,1,1
worker_280,memory_check_catch,7,17359,7,watch: beautiful/ugly,0,0,1
worker_280,memory_check_catch,8,17359,8,adult: tall/short,1,1,1
worker_280,memory_check_catch,9,17359,9,shirt: purple/orange,0,0,1
worker_259,memory_check_catch,0,27104,0,necklace: shiny/dull,0,0,1
worker_259,memory_check_catch,1,27105,1,sailboat: loud/quiet,1,1,1
worker_259,memory_check_catch,2,27105,2,shirt: purple/orange,0,0,1
worker_259,memory_check_catch,3,27105,3,banana: hard/soft,1,1,1
worker_259,memory_check_catch,4,27105,4,soup: warm/cold,1,1,1
worker_259,memory_check_catch,5,27105,5,six-pack of beer: expensive/cheap,1,1,1
worker_259,memory_check_catch,6,27105,6,animal: wild/tame,0,0,1
worker_259,memory_check_catch,7,27105,7,guitar: green/blue,0,0,1
worker_259,memory_check_catch,8,27105,8,watch: beautiful/ugly,0,0,1
worker_259,memory_check_catch,9,27106,9,shark: big/small,1,1,1
worker_238,memory_check_catch,0,26529,0,expensive plastic,1,1,1
worker_238,memory_check_catch,1,26529,1,wild oven,0,0,1
worker_238,memory_check_catch,2,26529,2,slow crockpot,1,1,1
worker_238,memory_check_catch,3,26529,3,big ant,1,1,1
worker_238,memory_check_catch,4,26529,4,dark cheesecake,1,1,1
worker_238,memory_check_catch,5,26529,5,beautiful suit,0,0,1
worker_238,memory_check_catch,6,26529,6,purple downtown street,0,0,1
worker_238,memory_check_catch,7,26529,7,shiny song,0,0,1
worker_238,memory_check_catch,8,26529,8,green bear den,0,0,1
worker_238,memory_check_catch,9,26529,9,loud crow,1,1,1
worker_013,memory_check_catch,0,9378,0,wild cotton,0,0,1
worker_013,memory_check_catch,1,9378,1,wide patio door,1,1,1
worker_013,memory_check_catch,2,9378,2,soft mango,1,1,1
worker_013,memory_check_catch,3,9378,3,green mouse,0,0,1
worker_013,memory_check_catch,4,9378,4,weak tent,1,1,1
worker_013,memory_check_catch,5,9378,5,shiny highway,0,0,1
worker_013,memory_check_catch,6,9378,6,expensive bronze,1,1,1
worker_013,memory_check_catch,7,9378,7,purple ice cream,0,0,1
worker_013,memory_check_catch,8,9378,8,hard bedboard,1,1,1
worker_013,memory_check_catch,9,9378,9,beautiful bassett hound,0,0,1
worker_137,memory_check_catch,0,5793,0,big ant,1,0,0
worker_137,memory_check_catch,1,5793,1,cheap suit,1,0,0
worker_137,memory_check_catch,2,5793,2,green juice,0,1,0
worker_137,memory_check_catch,3,5793,3,wild guitar,0,0,1
worker_137,memory_check_catch,4,5793,4,short child,1,0,0
worker_137,memory_check_catch,5,5793,5,shiny pencil,0,0,1
worker_137,memory_check_catch,6,5793,6,long hamster,1,0,0
worker_137,memory_check_catch,7,5793,7,loud rowboat,1,0,0
worker_137,memory_check_catch,8,5793,8,purple boulevard,0,0,1
worker_137,memory_check_catch,9,5793,9,beautiful tuna,0,0,1
worker_347,memory_check_catch,0,20001,0,quiet horn,1,0,0
worker_347,memory_check_catch,1,20001,1,beautiful shopping mall,0,1,0
worker_347,memory_check_catch,2,20001,2,quiet car,1,0,0
worker_347,memory_check_catch,3,20001,3,shiny bear den,0,1,0
worker_347,memory_check_catch,4,20001,4,heavy elephant,1,1,1
worker_347,memory_check_catch,5,20001,5,wild teenager,0,0,1
worker_347,memory_check_catch,6,20001,6,purple motorcycle,0,0,1
worker_347,memory_check_catch,7,20001,7,strong tent,1,1,1
worker_347,memory_check_catch,8,20001,8,big chihuahua,1,1,1
worker_347,memory_check_catch,9,20001,9,green house,0,0,1
worker_047,memory_check_catch,0,24167,0,small sedan,1,1,1
worker_047,memory_check_catch,1,24167,1,long mouse,1,0,0
worker_047,memory_check_catch,2,24167,2,wild steak,0,0,1
worker_047,memory_check_catch,3,24167,3,green child,0,0,1
worker_047,memory_check_catch,4,24167,4,shiny daisy,0,0,1
worker_047,memory_check_catch,5,24167,5,quick frying pan,1,0,0
worker_047,memory_check_catch,6,24167,6,purple cotton,0,0,1
worker_047,memory_check_catch,7,24167,7,fast car,1,0,0
worker_047,memory_check_catch,8,24167,8,cold muffin,1,1,1
worker_047,memory_check_catch,9,24167,9,beautiful flower,0,0,1
worker_239,memory_check_catch,0,19827,0,heavy printer,1,1,1
worker_239,memory_check_catch,1,19827,1,cold ice rink,1,1,1
worker_239,memory_check_catch,2,19827,2,weak condo,1,1,1
worker_239,memory_check_catch,3,19827,3,wild seagull,0,0,1
worker_239,memory_check_catch,4,19827,4,long limousine,1,1,1
worker_239,memory_check_catch,5,19827,5,big flower,1,0,0
worker_239,memory_check_catch,6,19827,6,beautiful child,0,1,0
worker_239,memory_check_catch,7,19827,7,green muffin,0,1,0
worker_239,memory_check_catch,8,19827,8,purple front gate,0,1,0
worker_239,memory_check_catch,9,19827,9,shiny child,0,1,0
worker_089,memory_check_catch,0,17645,0,small flower,1,1,1
worker_089,memory_check_catch,1,17645,1,purple rooster,0,0,1
worker_089,memory_check_catch,2,17645,2,wide back door,1,1,1
worker_089,memory_check_catch,3,17645,3,loud car,1,1,1
worker_089,memory_check_catch,4,17645,4,wild cat,0,0,1
worker_089,memory_check_catch,5,17645,5,beautiful cotton,0,1,0
worker_089,memory_check_catch,6,17645,6,hot smoothie,1,1,1
worker_089,memory_check_catch,7,17645,7,shiny highway,0,0,1
worker_089,memory_check_catch,8,17645,8,cold oven,1,1,1
worker_089,memory_check_catch,9,17645,9,green cat,0,0,1
worker_266,memory_check_catch,0,24935,0,small shark,1,0,0
worker_266,memory_check_catch,1,24935,1,long highway,1,1,1
worker_266,memory_check_catch,2,24935,2,green freezer,0,0,1
worker_266,memory_check_catch,3,24935,3,purple milkshake,0,0,1
worker_266,memory_check_catch,4,24935,4,strong cyclist,1,1,1
worker_266,memory_check_catch,5,24935,5,slow plane,1,0,0
worker_266,memory_check_catch,6,24935,6,quick elderly person,1,0,0
worker_266,memory_check_catch,7,24935,7,wild sailboat,0,0,1
worker_266,memory_check_catch,8,24935,8,shiny restaurant,0,0,1
worker_266,memory_check_catch,9,24935,9,beautiful muffin,0,0,1
worker_335,memory_check_catch,0,21906,0,guitar: green/blue,0,0,1
worker_335,memory_check_catch,1,21906,1,animal: wild/tame,0,1,0
worker_335,memory_check_catch,2,21906,2,shirt: purple/orange,0,1,0
worker_335,memory_check_catch,3,21906,3,conference center: noisy/quiet,1,1,1
worker_335,memory_check_catch,4,21906,4,watch: beautiful/ugly,0,0,1
worker_335,memory_check_catch,5,21906,5,necklace: shiny/dull,0,1,0
worker_335,memory_check_catch,6,21906,6,car: fast/slow,1,1,1
worker_335,memory_check_catch,7,21906,7,rowboat: fast/slow,1,1,1
worker_335,memory_check_catch,8,21906,8,cotton: heavy/light,1,1,1
worker_335,memory_check_catch,9,21906,9,podcast episode: long/short,1,1,1
worker_328,memory_check_catch,0,12880,0,mushroom: hard/soft,1,0,0
worker_328,memory_check_catch,1,12880,1,animal: wild/tame,0,1,0
worker_328,memory_check_catch,2,12880,2,guitar: green/blue,0,0,1
worker_328,memory_check_catch,3,12880,3,plastic: expensive/cheap,1,1,1
worker_328,memory_check_catch,4,12880,4,shirt: purple/orange,0,0,1
worker_328,memory_check_catch,5,12880,5,cell phone: heavy/light,1,1,1
worker_328,memory_check_catch,6,12880,6,monkey: tall/short,1,1,1
worker_328,memory_check_catch,7,12880,7,rowboat: fast/slow,1,0,0
worker_328,memory_check_catch,8,12880,8,necklace: shiny/dull,0,0,1
worker_328,memory_check_catch,9,12880,9,watch: beautiful/ugly,0,0,1
worker_212,memory_check_catch,0,16396,0,animal: wild/tame,0,0,1
worker_212,memory_check_catch,1,16396,1,plastic: expensive/cheap,1,0,0
worker_212,memory_check_catch,2,16396,2,highway: wide/narrow,1,1,1
worker_212,memory_check_catch,3,16396,3,silk: heavy/light,1,1,1
worker_212,memory_check_catch,4,16396,4,watch: beautiful/ugly,0,0,1
worker_212,memory_check_catch,5,16396,5,necklace: shiny/dull,0,0,1
worker_212,memory_check_catch,6,16396,6,guitar: green/blue,0,0,1
worker_212,memory_check_catch,7,16396,7,shirt: purple/orange,0,0,1
worker_212,memory_check_catch,8,16396,8,limousine: long/short,1,1,1
worker_212,memory_check_catch,9,16396,9,town: noisy/quiet,1,1,1
worker_153,memory_check_catch,0,15452,0,necklace: shiny/dull,0,0,1
worker_153,memory_check_catch,1,15452,1,marshmallow: hard/soft,1,1,1
worker_153,memory_check_catch,2,15452,2,shirt: purple/orange,0,0,1
worker_153,memory_check_catch,3,15452,3,podcast episode: long/short,1,1,1
worker_153,memory_check_catch,4,15452,4,guitar: green/blue,0,0,1
worker_153,memory_check_catch,5,15452,5,bear den: wide/narrow,1,1,1
worker_153,memory_check_catch,6,15452,6,oil paint: strong/weak,1,1,1
worker_153,memory_check_catch,7,15452,7,watch: beautiful/ugly,0,0,1
worker_153,memory_check_catch,8,15452,8,sloth: fast/slow,1,1,1
worker_153,memory_check_catch,9,15452,9,animal: wild/tame,0,0,1
worker_233,memory_check_catch,0,23889,0,movie: long/short,1,1,1
worker_233,memory_check_catch,1,23889,1,guitar: green/blue,0,0,1
worker_233,memory_check_catch,2,23889,2,dachshund: long/short,1,1,1
worker_233,memory_check_catch,3,23889,3,watch: beautiful/ugly,0,0,1
worker_233,memory_check_catch,4,23889,4,cotton: heavy/light,1,1,1
worker_233,memory_check_catch,5,23889,5,shirt: purple/orange,0,0,1
worker_233,memory_check_catch,6,23889,6,animal: wild/tame,0,0,1
worker_233,memory_check_catch,7,23889,7,suit: expensive/cheap,1,1,1
worker_233,memory_check_catch,8,23889,8,necklace: shiny/dull,0,0,1
worker_233,memory_check_catch,9,23889,9,dusk: light/dark,1,1,1
worker_185,memory_check_catch,0,16342,0,adult: strong/weak,1,1,1
worker_185,memory_check_catch,1,16342,1,guitar: green/blue,0,0,1
worker_185,memory_check_catch,2,16342,2,triathlon race: long/short,1,1,1
worker_185,memory_check_catch,3,16342,3,shirt: purple/orange,0,0,1
worker_185,memory_check_catch,4,16342,4,necklace: shiny/dull,0,0,1
worker_185,memory_check_catch,5,16342,5,animal: wild/tame,0,0,1
worker_185,memory_check_catch,6,16342,6,mouse: big/small,1,1,1
worker_185,memory_check_catch,7,16342,7,bush: big/small,1,1,1
worker_185,memory_check_catch,8,16342,8,sneakers: expensive/cheap,1,1,1
worker_185,memory_check_catch,9,16342,9,watch: beautiful/ugly,0,0,1
worker_375,memory_check_catch,0,18408,0,guitar: green/blue,0,0,1
worker_375,memory_check_catch,1,18408,1,boysenberries: expensive/cheap,1,1,1
worker_375,memory_check_catch,2,18408,2,chihuahua: long/short,1,0,0
worker_375,memory_check_catch,3,18408,3,necklace: shiny/dull,0,0,1
worker_375,memory_check_catch,4,18408,4,watch: beautiful/ugly,0,0,1
worker_375,memory_check_catch,5,18408,5,shirt: purple/orange,0,0,1
worker_375,memory_check_catch,6,18408,6,bass guitar: loud/quiet,1,1,1
worker_375,memory_check_catch,7,18408,7,ant: big/small,1,0,0
worker_375,memory_check_catch,8,18408,8,animal: wild/tame,0,0,1
worker_375,memory_check_catch,9,18408,9,kumquat: big/small,1,1,1
worker_341,memory_check_catch,0,18786,0,shopping mall: hot/cold,1,1,1
worker_341,memory_check_catch,1,18786,1,shirt: purple/orange,0,0,1
worker_341,memory_check_catch,2,18786,2,watch: beautiful/ugly,0,0,1
worker_341,memory_check_catch,3,18786,3,animal: wild/tame,0,1,0
worker_341,memory_check_catch,4,18786,4,guitar: green/blue,0,0,1
worker_341,memory_check_catch,5,18786,5,jogger: fast/slow,1,1,1
worker_341,memory_check_catch,6,18786,6,necklace: shiny/dull,0,0,1
worker_341,memory_check_catch,7,18786,7,elephant: fast/slow,1,1,1
worker_341,memory_check_catch,8,18786,8,monkey: tall/short,1,1,1
worker_341,memory_check_catch,9,18786,9,printer: heavy/light,1,1,1
worker_188,memory_check_catch,0,20553,0,teenager: tall/short,1,1,1
worker_188,memory_check_catch,1,20553,1,daisy: light/dark,1,1,1
worker_188,memory_check_catch,2,20553,2,guitar: green/blue,0,0,1
worker_188,memory_check_catch,3,20553,3,instant pot: quick/slow,1,1,1
worker_188,memory_check_catch,4,20553,4,necklace: shiny/dull,0,0,1
worker_188,memory_check_catch,5,20553,5,teenager: strong/weak,1,1,1
worker_188,memory_check_catch,6,20553,6,shirt: purple/orange,0,0,1
worker_188,memory_check_catch,7,20553,7,platinum: expensive/cheap,1,1,1
worker_188,memory_check_catch,8,20553,8,watch: beautiful/ugly,0,0,1
worker_188,memory_check_catch,9,20553,9,animal: wild/tame,0,0,1
worker_003,memory_check_catch,0,10040,0,creek: wide/narrow,1,1,1
worker_003,memory_check_catch,1,10040,1,necklace: shiny/dull,0,0,1
worker_003,memory_check_catch,2,10040,2,animal: wild/tame,0,0,1
worker_003,memory_check_catch,3,10040,3,watch: beautiful/ugly,0,0,1
worker_003,memory_check_catch,4,10040,4,alpine tree: tall/short,1,1,1
worker_003,memory_check_catch,5,10040,5,church: noisy/quiet,1,1,1
worker_003,memory_check_catch,6,10040,6,guitar: green/blue,0,0,1
worker_003,memory_check_catch,7,10040,7,shirt: purple/orange,0,0,1
worker_003,memory_check_catch,8,10040,8,triathlon race: long/short,1,1,1
worker_003,memory_check_catch,9,10040,9,chocolate cake: light/dark,1,1,1
worker_231,memory_check_catch,0,7684,0,bonsai tree: tall/short,1,1,1
worker_231,memory_check_catch,1,7684,1,guitar: green/blue,0,0,1
worker_231,memory_check_catch,2,7684,2,animal: wild/tame,0,1,0
worker_231,memory_check_catch,3,7684,3,watch: beautiful/ugly,0,0,1
worker_231,memory_check_catch,4,7684,4,shirt: purple/orange,0,0,1
worker_231,memory_check_catch,5,7684,5,opera: long/short,1,1,1
worker_231,memory_check_catch,6,7684,6,steak: expensive/cheap,1,0,0
worker_231,memory_check_catch,7,7684,7,bike: heavy/light,1,0,0
worker_231,memory_check_catch,8,7684,8,tent: strong/weak,1,0,0
worker_231,memory_check_catch,9,7684,9,necklace: shiny/dull,0,0,1
worker_040,memory_check_catch,0,5526,0,guitar: green/blue,0,0,1
worker_040,memory_check_catch,1,5526,1,blue paint: light/dark,1,0,0
worker_040,memory_check_catch,2,5526,2,shirt: purple/orange,0,0,1
worker_040,memory_check_catch,3,5526,3,watch: beautiful/ugly,0,1,0
worker_040,memory_check_catch,4,5526,4,golfer: tall/short,1,1,1
worker_040,memory_check_catch,5,5526,5,tuna: big/small,1,1,1
worker_040,memory_check_catch,6,5526,6,necklace: shiny/dull,0,0,1
worker_040,memory_check_catch,7,5526,7,sailboat: loud/quiet,1,0,0
worker_040,memory_check_catch,8,5526,8,Chinese restaurant: expensive/cheap,1,0,0
worker_040,memory_check_catch,9,5526,9,animal: wild/tame,0,0,1
worker_313,memory_check_catch,0,7715,0,country lane: wide/narrow,1,1,1
worker_313,memory_check_catch,1,7715,1,watch: beautiful/ugly,0,1,0
worker_313,memory_check_catch,2,7715,2,animal: wild/tame,0,0,1
worker_313,memory_check_catch,3,7716,3,child: tall/short,1,0,0
worker_313,memory_check_catch,4,7716,4,fall: warm/cold,1,1,1
worker_313,memory_check_catch,5,7716,5,back door: wide/narrow,1,0,0
worker_313,memory_check_catch,6,7716,6,guitar: green/blue,0,0,1
worker_313,memory_check_catch,7,7716,7,shirt: purple/orange,0,1,0
worker_313,memory_check_catch,8,7716,8,necklace: shiny/dull,0,0,1
worker_313,memory_check_catch,9,7716,9,truck: heavy/light,1,0,0
worker_077,memory_check_catch,0,31237,0,watch: beautiful/ugly,0,0,1
worker_077,memory_check_catch,1,31237,1,seagull: light/dark,1,1,1
worker_077,memory_check_catch,2,31237,2,necklace: shiny/dull,0,0,1
worker_077,memory_check_catch,3,31237,3,shirt: purple/orange,0,0,1
worker_077,memory_check_catch,4,31237,4,hurricane: strong/weak,1,1,1
worker_077,memory_check_catch,5,31237,5,walker: fast/slow,1,1,1
worker_077,memory_check_catch,6,31237,6,golfer: tall/short,1,1,1
worker_077,memory_check_catch,7,31237,7,guitar: green/blue,0,0,1
worker_077,memory_check_catch,8,31237,8,pansy: tall/short,1,1,1
worker_077,memory_check_catch,9,31237,9,animal: wild/tame,0,0,1
worker_388,memory_check_catch,0,17522,0,necklace: shiny/dull,0,0,1
worker_388,memory_check_catch,1,17522,1,watch: beautiful/ugly,0,0,1
worker_388,memory_check_catch,2,17522,2,motorcycle: fast/slow,1,1,1
worker_388,memory_check_catch,3,17522,3,guitar: green/blue,0,0,1
worker_388,memory_check_catch,4,17522,4,black paint: light/dark,1,1,1
worker_388,memory_check_catch,5,17522,5,plastic: expensive/cheap,1,1,1
worker_388,memory_check_catch,6,17522,6,sitcom: long/short,1,0,0
worker_388,memory_check_catch,7,17522,7,shirt: purple/orange,0,0,1
worker_388,memory_check_catch,8,17522,8,herring: big/small,1,1,1
worker_388,memory_check_catch,9,17522,9,animal: wild/tame,0,1,0
worker_253,memory_check_catch,0,14361,0,animal: wild/tame,0,1,0
worker_253,memory_check_catch,1,14361,1,shirt: purple/orange,0,0,1
worker_253,memory_check_catch,2,14361,2,soup: warm/cold,1,1,1
worker_253,memory_check_catch,3,14361,3,necklace: shiny/dull,0,0,1
worker_253,memory_check_catch,4,14361,4,summer: warm/cold,1,1,1
worker_253,memory_check_catch,5,14361,5,watch: beautiful/ugly,0,0,1
worker_253,memory_check_catch,6,14361,6,owl: loud/quiet,1,0,0
worker_253,memory_check_catch,7,14361,7,guitar: green/blue,0,1,0
worker_253,memory_check_catch,8,14361,8,flower: big/small,1,1,1
worker_253,memory_check_catch,9,14361,9,kid: heavy/light,1,0,0
worker_294,memory_check_catch,0,4815,0,adult: strong/weak,1,0,0
worker_294,memory_check_catch,1,4815,1,novel: long/short,1,0,0
worker_294,memory_check_catch,2,4815,2,necklace: shiny/dull,0,0,1
worker_294,memory_check_catch,3,4815,3,animal: wild/tame,0,1,0
worker_294,memory_check_catch,4,4815,4,guitar: green/blue,0,0,1
worker_294,memory_check_catch,5,4815,5,gold: expensive/cheap,1,0,0
worker_294,memory_check_catch,6,4815,6,creek: wide/narrow,1,0,0
worker_294,memory_check_catch,7,4815,7,piece of chocolate: hard/soft,1,0,0
worker_294,memory_check_catch,8,4815,8,watch: beautiful/ugly,0,0,1
worker_294,memory_check_catch,9,4815,9,shirt: purple/orange,0,0,1
worker_098,memory_check_catch,0,15145,0,shirt: purple/orange,0,0,1
worker_098,memory_check_catch,1,15145,1,acoustic guitar: loud/quiet,1,1,1
worker_098,memory_check_catch,2,15145,2,necklace: shiny/dull,0,0,1
worker_098,memory_check_catch,3,15145,3,city: noisy/quiet,1,1,1
worker_098,memory_check_catch,4,15145,4,sauna: hot/cold,1,1,1
worker_098,memory_check_catch,5,15145,5,pick-up truck: long/short,1,1,1
worker_098,memory_check_catch,6,15145,6,watch: beautiful/ugly,0,0,1
worker_098,memory_check_catch,7,15145,7,animal: wild/tame,0,0,1
worker_098,memory_check_catch,8,15145,8,guitar: green/blue,0,0,1
worker_098,memory_check_catch,9,15145,9,mango: hard/soft,1,1,1
worker_075,memory_check_catch,0,17547,0,tractor: loud/quiet,1,1,1
worker_075,memory_check_catch,1,17547,1,guitar: loud/quiet,1,1,1
worker_075,memory_check_catch,2,17547,2,rabbit: quick/slow,1,1,1
worker_075,memory_check_catch,3,17547,3,watch: beautiful/ugly,0,0,1
worker_075,memory_check_catch,4,17547,4,church: noisy/quiet,1,1,1
worker_075,memory_check_catch,5,17547,5,animal: wild/tame,0,1,0
worker_075,memory_check_catch,6,17547,6,necklace: shiny/dull,0,1,0
worker_075,memory_check_catch,7,17547,7,sailboat: fast/slow,1,0,0
worker_075,memory_check_catch,8,17547,8,shirt: purple/orange,0,1,0
worker_075,memory_check_catch,9,17547,9,guitar: green/blue,0,1,0
worker_346,memory_check_catch,0,14124,0,animal: wild/tame,0,0,1
worker_346,memory_check_catch,1,14124,1,harp: loud/quiet,1,1,1
worker_346,memory_check_catch,2,14124,2,watch: beautiful/ugly,0,0,1
worker_346,memory_check_catch,3,14124,3,tuna: big/small,1,1,1
worker_346,memory_check_catch,4,14124,4,pick-up truck: long/short,1,1,1
worker_346,memory_check_catch,5,14124,5,rose: light/dark,1,1,1
worker_346,memory_check_catch,6,14124,6,panther: light/dark,1,1,1
worker_346,memory_check_catch,7,14124,7,shirt: purple/orange,0,0,1
worker_346,memory_check_catch,8,14124,8,necklace: shiny/dull,0,0,1
worker_346,memory_check_catch,9,14124,9,guitar: green/blue,0,0,1
worker_161,memory_check_catch,0,9288,0,coat: expensive/cheap,1,1,1
worker_161,memory_check_catch,1,9288,1,parrot: light/dark,1,1,1
worker_161,memory_check_catch,2,9288,2,animal: wild/tame,0,0,1
worker_161,memory_check_catch,3,9288,3,guitar: green/blue,0,0,1
worker_161,memory_check_catch,4,9288,4,milkshake: hot/cold,1,1,1
worker_161,memory_check_catch,5,9289,5,necklace: shiny/dull,0,0,1
worker_161,memory_check_catch,6,9289,6,watch: beautiful/ugly,0,0,1
worker_161,memory_check_catch,7,9289,7,chihuahua: big/small,1,1,1
worker_161,memory_check_catch,8,9289,8,day: light/dark,1,1,1
worker_161,memory_check_catch,9,9289,9,shirt: purple/orange,0,0,1
worker_019,memory_check_catch,0,13032,0,shirt: purple/orange,0,0,1
worker_019,memory_check_catch,1,13032,1,poodle: light/dark,1,1,1
worker_019,memory_check_catch,2,13032,2,side road: wide/narrow,1,0,0
worker_019,memory_check_catch,3,13032,3,fruit cake: light/dark,1,1,1
worker_019,memory_check_catch,4,13032,4,villa: expensive/cheap,1,1,1
worker_019,memory_check_catch,5,13032,5,guitar: green/blue,0,0,1
worker_019,memory_check_catch,6,13032,6,chair: heavy/light,1,1,1
worker_019,memory_check_catch,7,13032,7,necklace: shiny/dull,0,0,1
worker_019,memory_check_catch,8,13032,8,animal: wild/tame,0,0,1
worker_019,memory_check_catch,9,13032,9,watch: beautiful/ugly,0,0,1
worker_284,memory_check_catch,0,22346,0,fish: heavy/light,1,1,1
worker_284,memory_check_catch,1,22346,1,shirt: purple/orange,0,0,1
worker_284,memory_check_catch,2,22346,2,necklace: shiny/dull,0,0,1
worker_284,memory_check_catch,3,22346,3,adult: loud/quiet,1,1,1
worker_284,memory_check_catch,4,22346,4,jaguar: light/dark,1,1,1
worker_284,memory_check_catch,5,22346,5,strawberries: expensive/cheap,1,1,1
worker_284,memory_check_catch,6,22346,6,guitar: green/blue,0,0,1
worker_284,memory_check_catch,7,22346,7,opera: long/short,1,1,1
worker_284,memory_check_catch,8,22346,8,watch: beautiful/ugly,0,0,1
worker_284,memory_check_catch,9,22346,9,animal: wild/tame,0,0,1
worker_400,memory_check_catch,0,14808,0,animal: wild/tame,0,0,1
worker_400,memory_check_catch,1,14808,1,bike: heavy/light,1,1,1
worker_400,memory_check_catch,2,14808,2,guitar: green/blue,0,0,1
worker_400,memory_check_catch,3,14808,3,shirt: purple/orange,0,0,1
worker_400,memory_check_catch,4,14808,4,herring: big/small,1,1,1
worker_400,memory_check_catch,5,14808,5,redwood tree: tall/short,1,1,1
worker_400,memory_check_catch,6,14808,6,rap concert: loud/quiet,1,1,1
worker_400,memory_check_catch,7,14808,7,necklace: shiny/dull,0,0,1
worker_400,memory_check_catch,8,14808,8,watch: beautiful/ugly,0,0,1
worker_400,memory_check_catch,9,14808,9,mockingbird : loud/quiet,1,1,1
worker_168,memory_check_catch,0,21146,0,sneakers: expensive/cheap,1,1,1
worker_168,memory_check_catch,1,21146,1,acoustic guitar: loud/quiet,1,1,1
worker_168,memory_check_catch,2,21146,2,animal: wild/tame,0,0,1
worker_168,memory_check_catch,3,21146,3,guitar: green/blue,0,0,1
worker_168,memory_check_catch,4,21146,4,watch: beautiful/ugly,0,0,1
worker_168,memory_check_catch,5,21146,5,alley: long/short,1,1,1
worker_168,memory_check_catch,6,21146,6,shirt: purple/orange,0,0,1
worker_168,memory_check_catch,7,21146,7,walker: fast/slow,1,1,1
worker_168,memory_check_catch,8,21146,8,necklace: shiny/dull,0,0,1
worker_168,memory_check_catch,9,21146,9,bike: heavy/light,1,1,1
worker_218,memory_check_catch,0,18994,0,animal: wild/tame,0,0,1
worker_218,memory_check_catch,1,18994,1,shirt: purple/orange,0,0,1
worker_218,memory_check_catch,2,18994,2,plastic: expensive/cheap,1,1,1
worker_218,memory_check_catch,3,18994,3,pitbull: light/dark,1,1,1
worker_218,memory_check_catch,4,18994,4,chocolate cake: light/dark,1,1,1
worker_218,memory_check_catch,5,18994,5,monkey: big/small,1,1,1
worker_218,memory_check_catch,6,18994,6,necklace: shiny/dull,0,0,1
worker_218,memory_check_catch,7,18994,7,dachshund: long/short,1,1,1
worker_218,memory_check_catch,8,18994,8,watch: beautiful/ugly,0,0,1
worker_218,memory_check_catch,9,18994,9,guitar: green/blue,0,0,1
worker_369,memory_check_catch,0,18173,0,shirt: purple/orange,0,0,1
worker_369,memory_check_catch,1,18173,1,necklace: shiny/dull,0,0,1
worker_369,memory_check_catch,2,18173,2,villa: expensive/cheap,1,1,1
worker_369,memory_check_catch,3,18173,3,platinum: expensive/cheap,1,1,1
worker_369,memory_check_catch,4,18173,4,animal: wild/tame,0,0,1
worker_369,memory_check_catch,5,18173,5,salt: expensive/cheap,1,1,1
worker_369,memory_check_catch,6,18173,6,couch: heavy/light,1,1,1
worker_369,memory_check_catch,7,18173,7,guitar: green/blue,0,0,1
worker_369,memory_check_catch,8,18173,8,limousine: long/short,1,1,1
worker_369,memory_check_catch,9,18173,9,watch: beautiful/ugly,0,0,1
worker_103,memory_check_catch,0,41186,0,strong wall paint,1,1,1
worker_103,memory_check_catch,1,41186,1,shiny wool,0,1,0
worker_103,memory_check_catch,2,41186,2,big poodle,1,1,1
worker_103,memory_check_catch,3,41186,3,purple adult,0,0,1
worker_103,memory_check_catch,4,41187,4,narrow street,1,1,1
worker_103,memory_check_catch,5,41187,5,wild pitbull,0,1,0
worker_103,memory_check_catch,6,41187,6,green tent,0,1,0
worker_103,memory_check_catch,7,41187,7,beautiful plum,0,1,0
worker_103,memory_check_catch,8,41187,8,tall giraffe,1,1,1
worker_103,memory_check_catch,9,41187,9,narrow bear den,1,1,1
worker_111,memory_check_catch,0,25672,0,light adult,1,1,1
worker_111,memory_check_catch,1,25672,1,small watermelon,1,1,1
worker_111,memory_check_catch,2,25672,2,loud sailboat,1,1,1
worker_111,memory_check_catch,3,25672,3,big tree,1,1,1
worker_111,memory_check_catch,4,25672,4,green mockingbird ,0,0,1
worker_111,memory_check_catch,5,25672,5,beautiful wall paint,0,0,1
worker_111,memory_check_catch,6,25672,6,shiny speedboat,0,0,1
worker_111,memory_check_catch,7,25672,7,wild movie,0,0,1
worker_111,memory_check_catch,8,25672,8,tall jockey,1,1,1
worker_111,memory_check_catch,9,25672,9,purple sloth,0,0,1
worker_217,memory_check_catch,0,17167,0,beautiful child,0,1,0
worker_217,memory_check_catch,1,17167,1,shiny sandals,0,0,1
worker_217,memory_check_catch,2,17167,2,fast truck,1,1,1
worker_217,memory_check_catch,3,17167,3,purple black paint,0,0,1
worker_217,memory_check_catch,4,17167,4,heavy motorcycle,1,1,1
worker_217,memory_check_catch,5,17167,5,wild apartment building,0,0,1
worker_217,memory_check_catch,6,17167,6,green monkey,0,0,1
worker_217,memory_check_catch,7,17167,7,short jockey,1,1,1
worker_217,memory_check_catch,8,17167,8,expensive bronze,1,1,1
worker_217,memory_check_catch,9,17167,9,cheap garlic,1,1,1
worker_118,memory_check_catch,0,21657,0,narrow front gate,1,1,1
worker_118,memory_check_catch,1,21657,1,green sitcom,0,0,1
worker_118,memory_check_catch,2,21657,2,shiny plane,0,0,1
worker_118,memory_check_catch,3,21657,3,purple skyscraper,0,0,1
worker_118,memory_check_catch,4,21657,4,light tiger,1,1,1
worker_118,memory_check_catch,5,21657,5,wild shopping mall,0,0,1
worker_118,memory_check_catch,6,21657,6,weak child,1,1,1
worker_118,memory_check_catch,7,21657,7,warm winter,1,1,1
worker_118,memory_check_catch,8,21657,8,beautiful chicken,0,0,1
worker_118,memory_check_catch,9,21657,9,hard tile,1,1,1
worker_149,memory_check_catch,0,17356,0,strong child,1,1,1
worker_149,memory_check_catch,1,17356,1,warm ice cream,1,1,1
worker_149,memory_check_catch,2,17356,2,narrow fox den,1,1,1
worker_149,memory_check_catch,3,17356,3,green chocolate fondue,0,0,1
worker_149,memory_check_catch,4,17356,4,wild bike,0,0,1
worker_149,memory_check_catch,5,17356,5,purple cucumber,0,0,1
worker_149,memory_check_catch,6,17356,6,wide boulevard,1,0,0
worker_149,memory_check_catch,7,17356,7,short pick-up truck,1,1,1
worker_149,memory_check_catch,8,17356,8,shiny skyscraper,0,0,1
worker_149,memory_check_catch,9,17356,9,beautiful harp,0,0,1
worker_200,memory_check_catch,0,27649,0,purple smartcar,0,0,1
worker_200,memory_check_catch,1,27649,1,green printer,0,0,1
worker_200,memory_check_catch,2,27649,2,hard banana,1,1,1
worker_200,memory_check_catch,3,27649,3,wild rooster,0,0,1
worker_200,memory_check_catch,4,27649,4,cheap strawberries,1,1,1
worker_200,memory_check_catch,5,27649,5,hot milkshake,1,0,0
worker_200,memory_check_catch,6,27649,6,strong wrestler,1,1,1
worker_200,memory_check_catch,7,27649,7,narrow country lane,1,1,1
worker_200,memory_check_catch,8,27649,8,shiny elephant,0,0,1
worker_200,memory_check_catch,9,27649,9,beautiful novel,0,0,1
worker_083,memory_check_catch,0,11390,0,green teenager,0,0,1
worker_083,memory_check_catch,1,11390,1,loud ukelele,1,1,1
worker_083,memory_check_catch,2,11390,2,wide river,1,1,1
worker_083,memory_check_catch,3,11390,3,purple hamster,0,0,1
worker_083,memory_check_catch,4,11390,4,cheap Korean restaurant,1,1,1
worker_083,memory_check_catch,5,11390,5,shiny summer,0,0,1
worker_083,memory_check_catch,6,11390,6,light tiger,1,1,1
worker_083,memory_check_catch,7,11390,7,small kumquat,1,1,1
worker_083,memory_check_catch,8,11390,8,beautiful cat,0,0,1
worker_083,memory_check_catch,9,11390,9,wild song,0,0,1
worker_393,memory_check_catch,0,57571,0,tall redwood tree,1,0,0
worker_393,memory_check_catch,1,57571,1,short movie,1,1,1
worker_393,memory_check_catch,2,57571,2,purple trash can,0,0,1
worker_393,memory_check_catch,3,57571,3,green oven,0,1,0
worker_393,memory_check_catch,4,57571,4,beautiful cotton,0,0,1
worker_393,memory_check_catch,5,57571,5,cold ice cream,1,1,1
worker_393,memory_check_catch,6,57571,6,fast elephant,1,0,0
worker_393,memory_check_catch,7,57571,7,strong condo,1,1,1
worker_393,memory_check_catch,8,57571,8,shiny fall,0,1,0
worker_393,memory_check_catch,9,57571,9,wild seagull,0,0,1
worker_359,memory_check_catch,0,16217,0,strong condo,1,1,1
worker_359,memory_check_catch,1,16217,1,purple giraffe,0,0,1
worker_359,memory_check_catch,2,16217,2,wild frying pan,0,0,1
worker_359,memory_check_catch,3,16217,3,loud sailboat,1,1,1
worker_359,memory_check_catch,4,16217,4,hard plastic,1,1,1
worker_359,memory_check_catch,5,16217,5,green stick,0,0,1
worker_359,memory_check_catch,6,16217,6,shiny hamster,0,0,1
worker_359,memory_check_catch,7,16217,7,narrow front gate,1,1,1
worker_359,memory_check_catch,8,16217,8,light kid,1,1,1
worker_359,memory_check_catch,9,16217,9,beautiful side road,0,0,1
worker_179,memory_check_catch,0,16104,0,wild wrestler,0,0,1
worker_179,memory_check_catch,1,16105,1,beautiful cell phone,0,0,1
worker_179,memory_check_catch,2,16105,2,shiny cucumber,0,0,1
worker_179,memory_check_catch,3,16105,3,tall basketball player,1,1,1
worker_179,memory_check_catch,4,16105,4,expensive six-pack of beer,1,1,1
worker_179,memory_check_catch,5,16105,5,short sprinting race,1,1,1
worker_179,memory_check_catch,6,16105,6,narrow street,1,1,1
worker_179,memory_check_catch,7,16105,7,purple mouse den,0,0,1
worker_179,memory_check_catch,8,16105,8,green limousine,0,0,1
worker_179,memory_check_catch,9,16105,9,tall pansy,1,0,0
worker_325,memory_check_catch,0,28352,0,wide highway,1,1,1
worker_325,memory_check_catch,1,28352,1,green chair,0,0,1
worker_325,memory_check_catch,2,28352,2,shiny bear den,0,0,1
worker_325,memory_check_catch,3,28352,3,purple platinum,0,0,1
worker_325,memory_check_catch,4,28352,4,light baby,1,1,1
worker_325,memory_check_catch,5,28352,5,slow crockpot,1,1,1
worker_325,memory_check_catch,6,28352,6,wild harp,0,0,1
worker_325,memory_check_catch,7,28352,7,tall teenager,1,0,0
worker_325,memory_check_catch,8,28352,8,big moth,1,0,0
worker_325,memory_check_catch,9,28352,9,beautiful pillow,0,0,1
worker_071,memory_check_catch,0,9943,0,heavy bike,1,1,1
worker_071,memory_check_catch,1,9943,1,light silk,1,0,0
worker_071,memory_check_catch,2,9944,2,shiny patio door,0,0,1
worker_071,memory_check_catch,3,9944,3,light elephant,1,1,1
worker_071,memory_check_catch,4,9944,4,green mouse den,0,0,1
worker_071,memory_check_catch,5,9944,5,hard tomato,1,0,0
worker_071,memory_check_catch,6,9944,6,purple sneakers,0,1,0
worker_071,memory_check_catch,7,9944,7,wild pen,0,0,1
worker_071,memory_check_catch,8,9944,8,beautiful village,0,0,1
worker_071,memory_check_catch,9,9944,9,tall giraffe,1,1,1
worker_112,memory_check_catch,0,34276,0,heavy rock,1,1,1
worker_112,memory_check_catch,1,34276,1,beautiful watermelon,0,0,1
worker_112,memory_check_catch,2,34276,2,long triathlon race,1,1,1
worker_112,memory_check_catch,3,34276,3,purple marshmallow,0,0,1
worker_112,memory_check_catch,4,34276,4,cold sauna,1,1,1
worker_112,memory_check_catch,5,34276,5,green giraffe,0,0,1
worker_112,memory_check_catch,6,34276,6,tall apartment building,1,1,1
worker_112,memory_check_catch,7,34276,7,shiny hurricane,0,0,1
worker_112,memory_check_catch,8,34276,8,wild bassett hound,0,0,1
worker_112,memory_check_catch,9,34276,9,slow crockpot,1,1,1
worker_204,memory_check_catch,0,18194,0,shiny cheesecake,0,0,1
worker_204,memory_check_catch,1,18194,1,narrow bear den,1,1,1
worker_204,memory_check_catch,2,18194,2,cold oven,1,1,1
worker_204,memory_check_catch,3,18194,3,purple highway,0,0,1
worker_204,memory_check_catch,4,18194,4,expensive plastic,1,1,1
worker_204,memory_check_catch,5,18194,5,green shopping mall,0,0,1
worker_204,memory_check_catch,6,18194,6,beautiful instant pot,0,0,1
worker_204,memory_check_catch,7,18194,7,big oven,1,0,0
worker_204,memory_check_catch,8,18194,8,tall basketball player,1,1,1
worker_204,memory_check_catch,9,18194,9,wild wood,0,0,1
worker_156,memory_check_catch,0,14120,0,shiny adult,0,0,1
worker_156,memory_check_catch,1,14120,1,expensive Chinese restaurant,1,1,1
worker_156,memory_check_catch,2,14120,2,green parrot,0,0,1
worker_156,memory_check_catch,3,14120,3,quiet restaurant,1,1,1
worker_156,memory_check_catch,4,14120,4,wild bear den,0,1,0
worker_156,memory_check_catch,5,14120,5,wide back door,1,1,1
worker_156,memory_check_catch,6,14120,6,heavy trash can,1,1,1
worker_156,memory_check_catch,7,14120,7,purple cheesecake,0,0,1
worker_156,memory_check_catch,8,14120,8,beautiful summer,0,0,1
worker_156,memory_check_catch,9,14120,9,short alpine tree,1,1,1
worker_246,memory_check_catch,0,25904,0,purple ukelele,0,0,1
worker_246,memory_check_catch,1,25904,1,cheap raspberries,1,1,1
worker_246,memory_check_catch,2,25904,2,quick rabbit,1,1,1
worker_246,memory_check_catch,3,25904,3,green tomato,0,0,1
worker_246,memory_check_catch,4,25904,4,wild downtown street,0,0,1
worker_246,memory_check_catch,5,25904,5,beautiful pencil,0,0,1
worker_246,memory_check_catch,6,25904,6,wide river,1,1,1
worker_246,memory_check_catch,7,25904,7,weak cyclist,1,1,1
worker_246,memory_check_catch,8,25904,8,shiny dachshund,0,0,1
worker_246,memory_check_catch,9,25904,9,long street,1,1,1
worker_367,memory_check_catch,0,20691,0,green watercolor,0,0,1
worker_367,memory_check_catch,1,20691,1,tall apartment building,1,0,0
worker_367,memory_check_catch,2,20691,2,wild fish,0,0,1
worker_367,memory_check_catch,3,20691,3,shiny highway,0,0,1
worker_367,memory_check_catch,4,20691,4,light laptop,1,1,1
worker_367,memory_check_catch,5,20691,5,weak mansion,1,0,0
worker_367,memory_check_catch,6,20691,6,beautiful metal,0,1,0
worker_367,memory_check_catch,7,20691,7,purple poem,0,0,1
worker_367,memory_check_catch,8,20691,8,warm fall,1,0,0
worker_367,memory_check_catch,9,20691,9,tall jockey,1,0,0
worker_397,memory_check_catch,0,22398,0,wide boulevard,1,1,1
worker_397,memory_check_catch,1,22398,1,purple watermelon,0,0,1
worker_397,memory_check_catch,2,22398,2,beautiful printer,0,0,1
worker_397,memory_check_catch,3,22398,3,light jaguar,1,1,1
worker_397,memory_check_catch,4,22398,4,wild dusk,0,0,1
worker_397,memory_check_catch,5,22398,5,tall child,1,1,1
worker_397,memory_check_catch,6,22398,6,light orange,1,0,0
worker_397,memory_check_catch,7,22398,7,weak watercolor,1,1,1
worker_397,memory_check_catch,8,22398,8,green hurricane,0,0,1
worker_397,memory_check_catch,9,22398,9,shiny cucumber,0,0,1
worker_066,memory_check_catch,0,20460,0,watch: beautiful/ugly,0,0,1
worker_066,memory_check_catch,1,20460,1,shirt: purple/orange,0,0,1
worker_066,memory_check_catch,2,20460,2,ant: big/small,1,1,1
worker_066,memory_check_catch,3,20460,3,oven: warm/cold,1,1,1
worker_066,memory_check_catch,4,20460,4,animal: wild/tame,0,0,1
worker_066,memory_check_catch,5,20460,5,bottle of top-shelf liquor: expensive/cheap,1,1,1
worker_066,memory_check_catch,6,20460,6,blanket: hard/soft,1,1,1
worker_066,memory_check_catch,7,20460,7,plum: heavy/light,1,1,1
worker_066,memory_check_catch,8,20460,8,guitar: green/blue,0,0,1
worker_066,memory_check_catch,9,20460,9,necklace: shiny/dull,0,0,1
worker_140,memory_check_catch,0,13945,0,necklace: shiny/dull,0,0,1
worker_140,memory_check_catch,1,13945,1,shark: big/small,1,1,1
worker_140,memory_check_catch,2,13945,2,shirt: purple/orange,0,0,1
worker_140,memory_check_catch,3,13945,3,watch: beautiful/ugly,0,0,1
worker_140,memory_check_catch,4,13945,4,marshmallow: hard/soft,1,1,1
worker_140,memory_check_catch,5,13945,5,wool: heavy/light,1,1,1
worker_140,memory_check_catch,6,13945,6,mockingbird : loud/quiet,1,1,1
worker_140,memory_check_catch,7,13945,7,guitar: green/blue,0,0,1
worker_140,memory_check_catch,8,13945,8,animal: wild/tame,0,0,1
worker_140,memory_check_catch,9,13945,9,chihuahua: long/short,1,1,1
worker_339,memory_check_catch,0,21188,0,watch: beautiful/ugly,0,0,1
worker_339,memory_check_catch,1,21188,1,animal: wild/tame,0,0,1
worker_339,memory_check_catch,2,21188,2,rooster: loud/quiet,1,1,1
worker_339,memory_check_catch,3,21188,3,fish: loud/quiet,1,1,1
worker_339,memory_check_catch,4,21188,4,watercolor: strong/weak,1,1,1
worker_339,memory_check_catch,5,21188,5,guitar: green/blue,0,0,1
worker_339,memory_check_catch,6,21188,6,child: strong/weak,1,1,1
worker_339,memory_check_catch,7,21188,7,city: noisy/quiet,1,1,1
worker_339,memory_check_catch,8,21188,8,shirt: purple/orange,0,0,1
worker_339,memory_check_catch,9,21188,9,necklace: shiny/dull,0,0,1
worker_198,memory_check_catch,0,31875,0,chocolate cake: light/dark,1,0,0
worker_198,memory_check_catch,1,31875,1,monkey: big/small,1,1,1
worker_198,memory_check_catch,2,31875,2,daisy: light/dark,1,1,1
worker_198,memory_check_catch,3,31875,3,parrot: loud/quiet,1,0,0
worker_198,memory_check_catch,4,31875,4,horn: loud/quiet,1,0,0
worker_198,memory_check_catch,5,31875,5,watch: beautiful/ugly,0,1,0
worker_198,memory_check_catch,6,31875,6,shirt: purple/orange,0,0,1
worker_198,memory_check_catch,7,31875,7,necklace: shiny/dull,0,0,1
worker_198,memory_check_catch,8,31875,8,guitar: green/blue,0,0,1
worker_198,memory_check_catch,9,31875,9,animal: wild/tame,0,0,1
worker_310,memory_check_catch,0,12843,0,seagull: light/dark,1,1,1
worker_310,memory_check_catch,1,12843,1,shirt: purple/orange,0,0,1
worker_310,memory_check_catch,2,12843,2,animal: wild/tame,0,0,1
worker_310,memory_check_catch,3,12843,3,guitar: green/blue,0,0,1
worker_310,memory_check_catch,4,12843,4,watch: beautiful/ugly,0,0,1
worker_310,memory_check_catch,5,12843,5,fish: loud/quiet,1,1,1
worker_310,memory_check_catch,6,12843,6,instant pot: quick/slow,1,1,1
worker_310,memory_check_catch,7,12843,7,necklace: shiny/dull,0,0,1
worker_310,memory_check_catch,8,12843,8,highway: wide/narrow,1,1,1
worker_310,memory_check_catch,9,12843,9,chihuahua: big/small,1,1,1
worker_107,memory_check_catch,0,17489,0,milkshake: hot/cold,1,1,1
worker_107,memory_check_catch,1,17489,1,shirt: purple/orange,0,0,1
worker_107,memory_check_catch,2,17489,2,animal: wild/tame,0,0,1
worker_107,memory_check_catch,3,17489,3,necklace: shiny/dull,0,0,1
worker_107,memory_check_catch,4,17489,4,guitar: green/blue,0,0,1
worker_107,memory_check_catch,5,17489,5,feather: heavy/light,1,1,1
worker_107,memory_check_catch,6,17489,6,blue paint: light/dark,1,1,1
worker_107,memory_check_catch,7,17489,7,fox den: wide/narrow,1,1,1
worker_107,memory_check_catch,8,17489,8,watch: beautiful/ugly,0,0,1
worker_107,memory_check_catch,9,17489,9,poem: long/short,1,1,1
worker_104,memory_check_catch,0,17532,0,guitar: green/blue,0,0,1
worker_104,memory_check_catch,1,17532,1,poodle: light/dark,1,1,1
worker_104,memory_check_catch,2,17532,2,shirt: purple/orange,0,0,1
worker_104,memory_check_catch,3,17532,3,mouse den: wide/narrow,1,1,1
worker_104,memory_check_catch,4,17532,4,plastic: hard/soft,1,1,1
worker_104,memory_check_catch,5,17532,5,animal: wild/tame,0,0,1
worker_104,memory_check_catch,6,17532,6,salad: warm/cold,1,1,1
worker_104,memory_check_catch,7,17532,7,necklace: shiny/dull,0,0,1
worker_104,memory_check_catch,8,17532,8,elderly person: quick/slow,1,1,1
worker_104,memory_check_catch,9,17532,9,watch: beautiful/ugly,0,0,1
worker_292,memory_check_catch,0,10758,0,shirt: purple/orange,0,0,1
worker_292,memory_check_catch,1,10758,1,apartment building: tall/short,1,0,0
worker_292,memory_check_catch,2,10758,2,guitar: green/blue,0,0,1
worker_292,memory_check_catch,3,10758,3,boots: expensive/cheap,1,0,0
worker_292,memory_check_catch,4,10758,4,necklace: shiny/dull,0,0,1
worker_292,memory_check_catch,5,10758,5,animal: wild/tame,0,0,1
worker_292,memory_check_catch,6,10758,6,story: long/short,1,1,1
worker_292,memory_check_catch,7,10758,7,printer: heavy/light,1,0,0
worker_292,memory_check_catch,8,10758,8,cotton: heavy/light,1,0,0
worker_292,memory_check_catch,9,10758,9,watch: beautiful/ugly,0,0,1
worker_247,memory_check_catch,0,14275,0,guitar: green/blue,0,0,1
worker_247,memory_check_catch,1,14275,1,bear den: wide/narrow,1,1,1
worker_247,memory_check_catch,2,14275,2,horn: loud/quiet,1,1,1
worker_247,memory_check_catch,3,14275,3,tile: hard/soft,1,1,1
worker_247,memory_check_catch,4,14275,4,parrot: light/dark,1,1,1
worker_247,memory_check_catch,5,14275,5,glider: fast/slow,1,1,1
worker_247,memory_check_catch,6,14275,6,shirt: purple/orange,0,0,1
worker_247,memory_check_catch,7,14275,7,animal: wild/tame,0,0,1
worker_247,memory_check_catch,8,14275,8,watch: beautiful/ugly,0,0,1
worker_247,memory_check_catch,9,14275,9,necklace: shiny/dull,0,0,1
worker_309,memory_check_catch,0,13894,0,owl: loud/quiet,1,1,1
worker_309,memory_check_catch,1,13894,1,shirt: purple/orange,0,0,1
worker_309,memory_check_catch,2,13894,2,concert: noisy/quiet,1,1,1
worker_309,memory_check_catch,3,13894,3,necklace: shiny/dull,0,0,1
worker_309,memory_check_catch,4,13894,4,watch: beautiful/ugly,0,0,1
worker_309,memory_check_catch,5,13894,5,panther: light/dark,1,1,1
worker_309,memory_check_catch,6,13894,6,guitar: green/blue,0,0,1
worker_309,memory_check_catch,7,13894,7,plastic: expensive/cheap,1,1,1
worker_309,memory_check_catch,8,13894,8,animal: wild/tame,0,0,1
worker_309,memory_check_catch,9,13894,9,rap concert: loud/quiet,1,1,1
worker_171,memory_check_catch,0,16367,0,animal: wild/tame,0,0,1
worker_171,memory_check_catch,1,16367,1,shirt: purple/orange,0,0,1
worker_171,memory_check_catch,2,16367,2,bottle of wine: expensive/cheap,1,1,1
worker_171,memory_check_catch,3,16367,3,guitar: green/blue,0,0,1
worker_171,memory_check_catch,4,16367,4,watch: beautiful/ugly,0,0,1
worker_171,memory_check_catch,5,16367,5,cheetah: fast/slow,1,1,1
worker_171,memory_check_catch,6,16367,6,stick: heavy/light,1,1,1
worker_171,memory_check_catch,7,16367,7,necklace: shiny/dull,0,0,1
worker_171,memory_check_catch,8,16367,8,strawberries: expensive/cheap,1,1,1
worker_171,memory_check_catch,9,16367,9,conference center: noisy/quiet,1,1,1
worker_380,memory_check_catch,0,4875,0,shirt: purple/orange,0,0,1
worker_380,memory_check_catch,1,4875,1,cat: loud/quiet,1,0,0
worker_380,memory_check_catch,2,4875,2,villa: expensive/cheap,1,0,0
worker_380,memory_check_catch,3,4875,3,guitar: green/blue,0,0,1
worker_380,memory_check_catch,4,4875,4,rock concert: loud/quiet,1,0,0
worker_380,memory_check_catch,5,4875,5,animal: wild/tame,0,1,0
worker_380,memory_check_catch,6,4875,6,poodle: light/dark,1,0,0
worker_380,memory_check_catch,7,4875,7,necklace: shiny/dull,0,0,1
worker_380,memory_check_catch,8,4875,8,raspberries: expensive/cheap,1,0,0
worker_380,memory_check_catch,9,4875,9,watch: beautiful/ugly,0,0,1
worker_065,memory_check_catch,0,17740,0,spaniel: light/dark,1,1,1
worker_065,memory_check_catch,1,17740,1,watch: beautiful/ugly,0,0,1
worker_065,memory_check_catch,2,17740,2,shirt: purple/orange,0,0,1
worker_065,memory_check_catch,3,17740,3,dachshund: long/short,1,1,1
worker_065,memory_check_catch,4,17740,4,guitar: green/blue,0,0,1
worker_065,memory_check_catch,5,17741,5,Chinese restaurant: expensive/cheap,1,1,1
worker_065,memory_check_catch,6,17741,6,necklace: shiny/dull,0,0,1
worker_065,memory_check_catch,7,17741,7,basketball player: tall/short,1,1,1
worker_065,memory_check_catch,8,17741,8,rap concert: loud/quiet,1,1,1
worker_065,memory_check_catch,9,17741,9,animal: wild/tame,0,0,1
worker_092,memory_check_catch,0,36199,0,animal: wild/tame,0,0,1
worker_092,memory_check_catch,1,36199,1,coat: expensive/cheap,1,1,1
worker_092,memory_check_catch,2,36199,2,watch: beautiful/ugly,0,0,1
worker_092,memory_check_catch,3,36199,3,shirt: purple/orange,0,0,1
worker_092,memory_check_catch,4,36199,4,choral concert: loud/quiet,1,1,1
worker_092,memory_check_catch,5,36199,5,bush: big/small,1,1,1
worker_092,memory_check_catch,6,36199,6,herring: big/small,1,1,1
worker_092,memory_check_catch,7,36199,7,strip mall: tall/short,1,1,1
worker_092,memory_check_catch,8,36199,8,necklace: shiny/dull,0,0,1
worker_092,memory_check_catch,9,36199,9,guitar: green/blue,0,0,1
worker_389,memory_check_catch,0,28240,0,animal: wild/tame,0,1,0
worker_389,memory_check_catch,1,28240,1,chihuahua: big/small,1,1,1
worker_389,memory_check_catch,2,28240,2,black paint: light/dark,1,1,1
worker_389,memory_check_catch,3,28240,3,necklace: shiny/dull,0,1,0
worker_389,memory_check_catch,4,28240,4,shirt: purple/orange,0,0,1
worker_389,memory_check_catch,5,28240,5,apartment: expensive/cheap,1,1,1
worker_389,memory_check_catch,6,28240,6,watch: beautiful/ugly,0,0,1
worker_389,memory_check_catch,7,28240,7,peach: big/small,1,0,0
worker_389,memory_check_catch,8,28240,8,relay race: long/short,1,1,1
worker_389,memory_check_catch,9,28240,9,guitar: green/blue,0,1,0
worker_127,memory_check_catch,0,28250,0,baby: loud/quiet,1,1,1
worker_127,memory_check_catch,1,28250,1,conference center: noisy/quiet,1,1,1
worker_127,memory_check_catch,2,28250,2,shirt: purple/orange,0,0,1
worker_127,memory_check_catch,3,28250,3,house: expensive/cheap,1,1,1
worker_127,memory_check_catch,4,28250,4,walker: fast/slow,1,1,1
worker_127,memory_check_catch,5,28250,5,guitar: green/blue,0,0,1
worker_127,memory_check_catch,6,28250,6,necklace: shiny/dull,0,0,1
worker_127,memory_check_catch,7,28250,7,animal: wild/tame,0,0,1
worker_127,memory_check_catch,8,28250,8,flower: big/small,1,1,1
worker_127,memory_check_catch,9,28250,9,watch: beautiful/ugly,0,0,1
worker_262,memory_check_catch,0,17130,0,opera: long/short,1,1,1
worker_262,memory_check_catch,1,17130,1,harp: loud/quiet,1,1,1
worker_262,memory_check_catch,2,17130,2,guitar: green/blue,0,0,1
worker_262,memory_check_catch,3,17130,3,movie: long/short,1,1,1
worker_262,memory_check_catch,4,17130,4,watch: beautiful/ugly,0,0,1
worker_262,memory_check_catch,5,17130,5,stick: heavy/light,1,1,1
worker_262,memory_check_catch,6,17130,6,animal: wild/tame,0,0,1
worker_262,memory_check_catch,7,17130,7,Japanese restaurant: expensive/cheap,1,1,1
worker_262,memory_check_catch,8,17130,8,necklace: shiny/dull,0,0,1
worker_262,memory_check_catch,9,17130,9,shirt: purple/orange,0,0,1
worker_027,memory_check_catch,0,14022,0,acoustic guitar: loud/quiet,1,1,1
worker_027,memory_check_catch,1,14022,1,electric car: loud/quiet,1,1,1
worker_027,memory_check_catch,2,14022,2,watch: beautiful/ugly,0,0,1
worker_027,memory_check_catch,3,14022,3,kid: heavy/light,1,1,1
worker_027,memory_check_catch,4,14022,4,necklace: shiny/dull,0,0,1
worker_027,memory_check_catch,5,14022,5,guitar: green/blue,0,0,1
worker_027,memory_check_catch,6,14022,6,laptop: heavy/light,1,1,1
worker_027,memory_check_catch,7,14022,7,shirt: purple/orange,0,0,1
worker_027,memory_check_catch,8,14022,8,animal: wild/tame,0,0,1
worker_027,memory_check_catch,9,14022,9,bonsai tree: tall/short,1,1,1
worker_386,memory_check_catch,0,106118,0,loud cat,1,1,1
worker_386,memory_check_catch,1,106118,1,weak cyclist,1,0,0
worker_386,memory_check_catch,2,106118,2,heavy trash can,1,1,1
worker_386,memory_check_catch,3,106118,3,purple car,0,0,1
worker_386,memory_check_catch,4,106118,4,wild kumquat,0,0,1
worker_386,memory_check_catch,5,106118,5,quick turtle,1,0,0
worker_386,memory_check_catch,6,106119,6,small toaster,1,1,1
worker_386,memory_check_catch,7,106119,7,beautiful dahlia,0,0,1
worker_386,memory_check_catch,8,106119,8,shiny sauna,0,0,1
worker_386,memory_check_catch,9,106119,9,green blanket,0,0,1
worker_176,memory_check_catch,0,77472,0,shiny mouse den,0,0,1
worker_176,memory_check_catch,1,77472,1,wild golfer,0,0,1
worker_176,memory_check_catch,2,77472,2,big ant,1,1,1
worker_176,memory_check_catch,3,77472,3,green relay race,0,0,1
worker_176,memory_check_catch,4,77472,4,purple patio door,0,0,1
worker_176,memory_check_catch,5,77472,5,dark white paint,1,0,0
worker_176,memory_check_catch,6,77472,6,beautiful adult,0,0,1
worker_176,memory_check_catch,7,77472,7,small elephant,1,1,1
worker_176,memory_check_catch,8,77472,8,heavy printer,1,1,1
worker_176,memory_check_catch,9,77472,9,long hamster,1,1,1
worker_177,memory_check_catch,0,19988,0,beautiful chocolate cake,0,0,1
worker_177,memory_check_catch,1,19988,1,purple country lane,0,0,1
worker_177,memory_check_catch,2,19988,2,dark spaniel,1,1,1
worker_177,memory_check_catch,3,19988,3,fast sloth,1,0,0
worker_177,memory_check_catch,4,19988,4,hot sauna,1,1,1
worker_177,memory_check_catch,5,19988,5,warm summer,1,1,1
worker_177,memory_check_catch,6,19988,6,shiny sandals,0,0,1
worker_177,memory_check_catch,7,19988,7,wild penguin,0,0,1
worker_177,memory_check_catch,8,19988,8,green bonsai tree,0,0,1
worker_177,memory_check_catch,9,19988,9,cold juice,1,1,1
worker_203,memory_check_catch,0,21237,0,short tulip,1,1,1
worker_203,memory_check_catch,1,21237,1,strong oil paint,1,1,1
worker_203,memory_check_catch,2,21237,2,green tuna,0,1,0
worker_203,memory_check_catch,3,21237,3,dark rose,1,1,1
worker_203,memory_check_catch,4,21237,4,beautiful plastic,0,1,0
worker_203,memory_check_catch,5,21237,5,warm pantry,1,0,0
worker_203,memory_check_catch,6,21237,6,purple villa,0,1,0
worker_203,memory_check_catch,7,21237,7,shiny cheesecake,0,0,1
worker_203,memory_check_catch,8,21237,8,wild rain shower,0,0,1
worker_203,memory_check_catch,9,21237,9,fast helicopter,1,1,1
worker_128,memory_check_catch,0,41905,0,shiny mouse,0,0,1
worker_128,memory_check_catch,1,41905,1,wild sneakers,0,0,1
worker_128,memory_check_catch,2,41905,2,expensive gold,1,1,1
worker_128,memory_check_catch,3,41905,3,quiet restaurant,1,1,1
worker_128,memory_check_catch,4,41905,4,purple trash can,0,0,1
worker_128,memory_check_catch,5,41906,5,strong rain shower,1,0,0
worker_128,memory_check_catch,6,41906,6,green glider,0,1,0
worker_128,memory_check_catch,7,41906,7,beautiful wood,0,0,1
worker_128,memory_check_catch,8,41906,8,dark panther,1,1,1
worker_128,memory_check_catch,9,41906,9,hot coffee,1,1,1
worker_126,memory_check_catch,0,30591,0,beautiful bedboard,0,0,1
worker_126,memory_check_catch,1,30591,1,green golfer,0,0,1
worker_126,memory_check_catch,2,30591,2,heavy orange,1,1,1
worker_126,memory_check_catch,3,30591,3,shiny side road,0,0,1
worker_126,memory_check_catch,4,30591,4,slow motorcycle,1,1,1
worker_126,memory_check_catch,5,30591,5,wild pantry,0,0,1
worker_126,memory_check_catch,6,30592,6,dark daisy,1,1,1
worker_126,memory_check_catch,7,30592,7,purple watercolor,0,0,1
worker_126,memory_check_catch,8,30592,8,quick frying pan,1,1,1
worker_126,memory_check_catch,9,30592,9,expensive saffron,1,1,1
worker_056,memory_check_catch,0,33258,0,heavy watermelon,1,1,1
worker_056,memory_check_catch,1,33258,1,small ant,1,1,1
worker_056,memory_check_catch,2,33258,2,big peach,1,1,1
worker_056,memory_check_catch,3,33258,3,wild tomato,0,0,1
worker_056,memory_check_catch,4,33258,4,beautiful cotton,0,0,1
worker_056,memory_check_catch,5,33258,5,dark tiger,1,1,1
worker_056,memory_check_catch,6,33258,6,heavy elephant,1,1,1
worker_056,memory_check_catch,7,33258,7,purple child,0,0,1
worker_056,memory_check_catch,8,33258,8,shiny fox den,0,0,1
worker_056,memory_check_catch,9,33258,9,green car,0,0,1
worker_340,memory_check_catch,0,20674,0,heavy fish,1,0,0
worker_340,memory_check_catch,1,20674,1,loud baby,1,0,0
worker_340,memory_check_catch,2,20674,2,shiny blue paint,0,0,1
worker_340,memory_check_catch,3,20674,3,green alpine tree,0,0,1
worker_340,memory_check_catch,4,20674,4,cold muffin,1,0,0
worker_340,memory_check_catch,5,20674,5,short bassett hound,1,0,0
worker_340,memory_check_catch,6,20674,6,purple concert,0,0,1
worker_340,memory_check_catch,7,20674,7,strong adult,1,0,0
worker_340,memory_check_catch,8,20674,8,beautiful mushroom,0,0,1
worker_340,memory_check_catch,9,20674,9,wild herring,0,0,1
worker_038,memory_check_catch,0,16513,0,purple jolly rancher,0,1,0
worker_038,memory_check_catch,1,16513,1,expensive house,1,1,1
worker_038,memory_check_catch,2,16513,2,green sandals,0,1,0
worker_038,memory_check_catch,3,16513,3,cheap metal,1,0,0
worker_038,memory_check_catch,4,16513,4,beautiful bear den,0,0,1
worker_038,memory_check_catch,5,16513,5,wide river,1,0,0
worker_038,memory_check_catch,6,16513,6,soft wood,1,0,0
worker_038,memory_check_catch,7,16513,7,tall apartment building,1,1,1
worker_038,memory_check_catch,8,16513,8,wild frying pan,0,1,0
worker_038,memory_check_catch,9,16513,9,shiny basketball player,0,1,0
worker_329,memory_check_catch,0,13374,0,animal: wild/tame,0,0,1
worker_329,memory_check_catch,1,13374,1,necklace: shiny/dull,0,0,1
worker_329,memory_check_catch,2,13374,2,stick: heavy/light,1,1,1
worker_329,memory_check_catch,3,13374,3,country lane: wide/narrow,1,1,1
worker_329,memory_check_catch,4,13374,4,ice rink: hot/cold,1,1,1
worker_329,memory_check_catch,5,13374,5,bear den: wide/narrow,1,1,1
worker_329,memory_check_catch,6,13374,6,guitar: green/blue,0,0,1
worker_329,memory_check_catch,7,13374,7,shirt: purple/orange,0,0,1
worker_329,memory_check_catch,8,13374,8,wall paint: strong/weak,1,1,1
worker_329,memory_check_catch,9,13374,9,watch: beautiful/ugly,0,0,1
worker_106,memory_check_catch,0,24725,0,necklace: shiny/dull,0,0,1
worker_106,memory_check_catch,1,24726,1,shirt: purple/orange,0,0,1
worker_106,memory_check_catch,2,24726,2,harp: loud/quiet,1,1,1
worker_106,memory_check_catch,3,24726,3,watch: beautiful/ugly,0,0,1
worker_106,memory_check_catch,4,24726,4,guitar: green/blue,0,0,1
worker_106,memory_check_catch,5,24726,5,city: noisy/quiet,1,1,1
worker_106,memory_check_catch,6,24726,6,oil paint: strong/weak,1,1,1
worker_106,memory_check_catch,7,24726,7,animal: wild/tame,0,1,0
worker_106,memory_check_catch,8,24726,8,night: light/dark,1,1,1
worker_106,memory_check_catch,9,24726,9,salad: warm/cold,1,1,1
worker_365,memory_check_catch,0,15342,0,guitar: green/blue,0,0,1
worker_365,memory_check_catch,1,15342,1,jogger: fast/slow,1,1,1
worker_365,memory_check_catch,2,15342,2,dachshund: long/short,1,1,1
worker_365,memory_check_catch,3,15342,3,watch: beautiful/ugly,0,0,1
worker_365,memory_check_catch,4,15342,4,milkshake: hot/cold,1,1,1
worker_365,memory_check_catch,5,15343,5,fall: warm/cold,1,1,1
worker_365,memory_check_catch,6,15343,6,necklace: shiny/dull,0,0,1
worker_365,memory_check_catch,7,15343,7,animal: wild/tame,0,0,1
worker_365,memory_check_catch,8,15343,8,shirt: purple/orange,0,0,1
worker_365,memory_check_catch,9,15343,9,sprinting race: long/short,1,1,1
worker_381,memory_check_catch,0,14995,0,watch: beautiful/ugly,0,0,1
worker_381,memory_check_catch,1,14995,1,guitar: green/blue,0,0,1
worker_381,memory_check_catch,2,14995,2,necklace: shiny/dull,0,0,1
worker_381,memory_check_catch,3,14995,3,oven: big/small,1,1,1
worker_381,memory_check_catch,4,14995,4,shirt: purple/orange,0,0,1
worker_381,memory_check_catch,5,14995,5,alpine tree: tall/short,1,1,1
worker_381,memory_check_catch,6,14995,6,finch: loud/quiet,1,1,1
worker_381,memory_check_catch,7,14995,7,animal: wild/tame,0,0,1
worker_381,memory_check_catch,8,14995,8,adult: quick/slow,1,1,1
worker_381,memory_check_catch,9,14995,9,suit: expensive/cheap,1,1,1
worker_382,memory_check_catch,0,19393,0,wrestler: strong/weak,1,1,1
worker_382,memory_check_catch,1,19393,1,guitar: green/blue,0,0,1
worker_382,memory_check_catch,2,19393,2,watch: beautiful/ugly,0,0,1
worker_382,memory_check_catch,3,19393,3,elephant: big/small,1,1,1
worker_382,memory_check_catch,4,19393,4,shirt: purple/orange,0,0,1
worker_382,memory_check_catch,5,19393,5,necklace: shiny/dull,0,0,1
worker_382,memory_check_catch,6,19393,6,truck: heavy/light,1,1,1
worker_382,memory_check_catch,7,19393,7,wood: hard/soft,1,1,1
worker_382,memory_check_catch,8,19393,8,animal: wild/tame,0,0,1
worker_382,memory_check_catch,9,19393,9,rose: light/dark,1,1,1
worker_088,memory_check_catch,0,21563,0,watch: beautiful/ugly,0,0,1
worker_088,memory_check_catch,1,21563,1,shirt: purple/orange,0,0,1
worker_088,memory_check_catch,2,21563,2,necklace: shiny/dull,0,0,1
worker_088,memory_check_catch,3,21563,3,animal: wild/tame,0,0,1
worker_088,memory_check_catch,4,21563,4,truck: fast/slow,1,1,1
worker_088,memory_check_catch,5,21563,5,pantry: warm/cold,1,1,1
worker_088,memory_check_catch,6,21563,6,guitar: green/blue,0,0,1
worker_088,memory_check_catch,7,21564,7,bottle of wine: expensive/cheap,1,1,1
worker_088,memory_check_catch,8,21564,8,cotton: hard/soft,1,1,1
worker_088,memory_check_catch,9,21564,9,bear den: wide/narrow,1,1,1
worker_064,memory_check_catch,0,12903,0,front gate: wide/narrow,1,1,1
worker_064,memory_check_catch,1,12903,1,highway: long/short,1,1,1
worker_064,memory_check_catch,2,12903,2,shirt: purple/orange,0,0,1
worker_064,memory_check_catch,3,12903,3,necklace: shiny/dull,0,0,1
worker_064,memory_check_catch,4,12903,4,animal: wild/tame,0,0,1
worker_064,memory_check_catch,5,12903,5,gold: expensive/cheap,1,1,1
worker_064,memory_check_catch,6,12903,6,watch: beautiful/ugly,0,0,1
worker_064,memory_check_catch,7,12903,7,pansy: tall/short,1,1,1
worker_064,memory_check_catch,8,12903,8,guitar: green/blue,0,0,1
worker_064,memory_check_catch,9,12903,9,sprinting race: long/short,1,1,1
worker_187,memory_check_catch,0,24086,0,smartcar: big/small,1,1,1
worker_187,memory_check_catch,1,24086,1,bottle of top-shelf liquor: expensive/cheap,1,1,1
worker_187,memory_check_catch,2,24086,2,necklace: shiny/dull,0,0,1
worker_187,memory_check_catch,3,24086,3,shark: big/small,1,1,1
worker_187,memory_check_catch,4,24086,4,animal: wild/tame,0,0,1
worker_187,memory_check_catch,5,24086,5,shirt: purple/orange,0,0,1
worker_187,memory_check_catch,6,24086,6,trash can: heavy/light,1,1,1
worker_187,memory_check_catch,7,24086,7,watch: beautiful/ugly,0,0,1
worker_187,memory_check_catch,8,24086,8,guitar: green/blue,0,0,1
worker_187,memory_check_catch,9,24086,9,jaguar: light/dark,1,1,1
worker_006,memory_check_catch,0,18923,0,pansy: tall/short,1,1,1
worker_006,memory_check_catch,1,18923,1,necklace: shiny/dull,0,1,0
worker_006,memory_check_catch,2,18923,2,watch: beautiful/ugly,0,0,1
worker_006,memory_check_catch,3,18923,3,chihuahua: long/short,1,1,1
worker_006,memory_check_catch,4,18923,4,guitar: green/blue,0,0,1
worker_006,memory_check_catch,5,18923,5,parrot: light/dark,1,1,1
worker_006,memory_check_catch,6,18923,6,freezer: warm/cold,1,1,1
worker_006,memory_check_catch,7,18923,7,shirt: purple/orange,0,1,0
worker_006,memory_check_catch,8,18923,8,animal: wild/tame,0,1,0
worker_006,memory_check_catch,9,18923,9,child: strong/weak,1,1,1
worker_333,memory_check_catch,0,17583,0,marshmallow: hard/soft,1,1,1
worker_333,memory_check_catch,1,17583,1,plane: fast/slow,1,1,1
worker_333,memory_check_catch,2,17583,2,raspberries: expensive/cheap,1,1,1
worker_333,memory_check_catch,3,17583,3,spider: big/small,1,1,1
worker_333,memory_check_catch,4,17583,4,shirt: purple/orange,0,0,1
worker_333,memory_check_catch,5,17583,5,steak: expensive/cheap,1,1,1
worker_333,memory_check_catch,6,17583,6,watch: beautiful/ugly,0,0,1
worker_333,memory_check_catch,7,17583,7,animal: wild/tame,0,0,1
worker_333,memory_check_catch,8,17583,8,necklace: shiny/dull,0,0,1
worker_333,memory_check_catch,9,17583,9,guitar: green/blue,0,0,1
worker_076,memory_check_catch,0,16516,0,frying pan: quick/slow,1,1,1
worker_076,memory_check_catch,1,16516,1,watch: beautiful/ugly,0,0,1
worker_076,memory_check_catch,2,16516,2,shirt: purple/orange,0,0,1
worker_076,memory_check_catch,3,16516,3,necklace: shiny/dull,0,0,1
worker_076,memory_check_catch,4,16516,4,guitar: green/blue,0,0,1
worker_076,memory_check_catch,5,16516,5,animal: wild/tame,0,0,1
worker_076,memory_check_catch,6,16516,6,elderly person: quick/slow,1,1,1
worker_076,memory_check_catch,7,16516,7,seagull: light/dark,1,1,1
worker_076,memory_check_catch,8,16516,8,jockey: tall/short,1,1,1
worker_076,memory_check_catch,9,16516,9,golfer: strong/weak,1,1,1
worker_214,memory_check_catch,0,18348,0,redwood tree: tall/short,1,1,1
worker_214,memory_check_catch,1,18348,1,shirt: purple/orange,0,0,1
worker_214,memory_check_catch,2,18348,2,guitar: green/blue,0,0,1
worker_214,memory_check_catch,3,18348,3,necklace: shiny/dull,0,0,1
worker_214,memory_check_catch,4,18348,4,oil paint: strong/weak,1,1,1
worker_214,memory_check_catch,5,18348,5,walker: fast/slow,1,1,1
worker_214,memory_check_catch,6,18348,6,saffron: expensive/cheap,1,1,1
worker_214,memory_check_catch,7,18348,7,watch: beautiful/ugly,0,0,1
worker_214,memory_check_catch,8,18348,8,chair: heavy/light,1,1,1
worker_214,memory_check_catch,9,18348,9,animal: wild/tame,0,0,1
worker_087,memory_check_catch,0,23196,0,conference center: noisy/quiet,1,1,1
worker_087,memory_check_catch,1,23196,1,necklace: shiny/dull,0,0,1
worker_087,memory_check_catch,2,23196,2,tiger: light/dark,1,1,1
worker_087,memory_check_catch,3,23196,3,shirt: purple/orange,0,0,1
worker_087,memory_check_catch,4,23196,4,watch: beautiful/ugly,0,0,1
worker_087,memory_check_catch,5,23196,5,crow: loud/quiet,1,1,1
worker_087,memory_check_catch,6,23196,6,jogger: fast/slow,1,1,1
worker_087,memory_check_catch,7,23196,7,animal: wild/tame,0,0,1
worker_087,memory_check_catch,8,23196,8,limousine: long/short,1,1,1
worker_087,memory_check_catch,9,23196,9,guitar: green/blue,0,0,1
worker_210,memory_check_catch,0,70833,0,guitar: green/blue,0,0,1
worker_210,memory_check_catch,1,70833,1,animal: wild/tame,0,0,1
worker_210,memory_check_catch,2,70833,2,pick-up truck: long/short,1,1,1
worker_210,memory_check_catch,3,70833,3,wood: hard/soft,1,0,0
worker_210,memory_check_catch,4,70833,4,watch: beautiful/ugly,0,0,1
worker_210,memory_check_catch,5,70833,5,giraffe: tall/short,1,0,0
worker_210,memory_check_catch,6,70833,6,dusk: light/dark,1,0,0
worker_210,memory_check_catch,7,70833,7,necklace: shiny/dull,0,0,1
worker_210,memory_check_catch,8,70833,8,shirt: purple/orange,0,0,1
worker_210,memory_check_catch,9,70833,9,choral concert: loud/quiet,1,0,0
worker_123,memory_check_catch,0,13061,0,shirt: purple/orange,0,0,1
worker_123,memory_check_catch,1,13061,1,villa: expensive/cheap,1,1,1
worker_123,memory_check_catch,2,13061,2,downtown street: wide/narrow,1,1,1
worker_123,memory_check_catch,3,13061,3,oil paint: strong/weak,1,1,1
worker_123,memory_check_catch,4,13061,4,guitar: green/blue,0,0,1
worker_123,memory_check_catch,5,13061,5,watch: beautiful/ugly,0,0,1
worker_123,memory_check_catch,6,13061,6,rap concert: loud/quiet,1,1,1
worker_123,memory_check_catch,7,13061,7,animal: wild/tame,0,0,1
worker_123,memory_check_catch,8,13061,8,fox den: wide/narrow,1,1,1
worker_123,memory_check_catch,9,13061,9,necklace: shiny/dull,0,0,1
worker_135,memory_check_catch,0,20211,0,rain shower: strong/weak,1,1,1
worker_135,memory_check_catch,1,20211,1,skyscraper: tall/short,1,1,1
worker_135,memory_check_catch,2,20211,2,guitar: green/blue,0,0,1
worker_135,memory_check_catch,3,20211,3,necklace: shiny/dull,0,0,1
worker_135,memory_check_catch,4,20211,4,watch: beautiful/ugly,0,0,1
worker_135,memory_check_catch,5,20211,5,shirt: purple/orange,0,0,1
worker_135,memory_check_catch,6,20211,6,muffin: hot/cold,1,1,1
worker_135,memory_check_catch,7,20211,7,animal: wild/tame,0,0,1
worker_135,memory_check_catch,8,20211,8,song: long/short,1,1,1
worker_135,memory_check_catch,9,20211,9,dahlia: light/dark,1,1,1
worker_044,memory_check_catch,0,17945,0,pork: expensive/cheap,1,1,1
worker_044,memory_check_catch,1,17945,1,guitar: green/blue,0,0,1
worker_044,memory_check_catch,2,17945,2,shirt: purple/orange,0,0,1
worker_044,memory_check_catch,3,17945,3,animal: wild/tame,0,0,1
worker_044,memory_check_catch,4,17945,4,watch: beautiful/ugly,0,0,1
worker_044,memory_check_catch,5,17945,5,soup: warm/cold,1,1,1
worker_044,memory_check_catch,6,17945,6,basketball player: tall/short,1,1,1
worker_044,memory_check_catch,7,17945,7,bottle of wine: expensive/cheap,1,1,1
worker_044,memory_check_catch,8,17945,8,bush: big/small,1,1,1
worker_044,memory_check_catch,9,17945,9,necklace: shiny/dull,0,0,1
worker_195,memory_check_catch,0,42594,0,wild wrestler,0,0,1
worker_195,memory_check_catch,1,42594,1,green chocolate fondue,0,0,1
worker_195,memory_check_catch,2,42594,2,dark day,1,0,0
worker_195,memory_check_catch,3,42594,3,beautiful chihuahua,0,0,1
worker_195,memory_check_catch,4,42594,4,big watermelon,1,1,1
worker_195,memory_check_catch,5,42594,5,fast walker,1,1,1
worker_195,memory_check_catch,6,42594,6,weak tent,1,0,0
worker_195,memory_check_catch,7,42594,7,long smartcar,1,0,0
worker_195,memory_check_catch,8,42594,8,shiny refrigerator,0,0,1
worker_195,memory_check_catch,9,42594,9,purple stick,0,0,1
worker_068,memory_check_catch,0,20583,0,shiny white paint,0,1,0
worker_068,memory_check_catch,1,20583,1,purple song,0,0,1
worker_068,memory_check_catch,2,20583,2,light rock,1,1,1
worker_068,memory_check_catch,3,20583,3,wild cotton,0,1,0
worker_068,memory_check_catch,4,20583,4,weak tent,1,1,1
worker_068,memory_check_catch,5,20583,5,big poodle,1,1,1
worker_068,memory_check_catch,6,20583,6,tall pansy,1,1,1
worker_068,memory_check_catch,7,20583,7,green chocolate fondue,0,0,1
worker_068,memory_check_catch,8,20583,8,heavy printer,1,1,1
worker_068,memory_check_catch,9,20583,9,beautiful teenager,0,0,1
worker_073,memory_check_catch,0,16336,0,cold coffee,1,1,1
worker_073,memory_check_catch,1,16336,1,beautiful highway,0,0,1
worker_073,memory_check_catch,2,16336,2,small great dane,1,0,0
worker_073,memory_check_catch,3,16336,3,wild snake,0,0,1
worker_073,memory_check_catch,4,16336,4,tall adult,1,0,0
worker_073,memory_check_catch,5,16336,5,shiny spider,0,0,1
worker_073,memory_check_catch,6,16336,6,fast speedboat,1,1,1
worker_073,memory_check_catch,7,16336,7,loud rooster,1,1,1
worker_073,memory_check_catch,8,16336,8,purple jolly rancher,0,0,1
worker_073,memory_check_catch,9,16336,9,green alpine tree,0,0,1
worker_136,memory_check_catch,0,38408,0,shiny pillow,0,0,1
worker_136,memory_check_catch,1,38408,1,loud baby,1,0,0
worker_136,memory_check_catch,2,38408,2,green town,0,0,1
worker_136,memory_check_catch,3,38408,3,slow rabbit,1,0,0
worker_136,memory_check_catch,4,38408,4,weak tent,1,1,1
worker_136,memory_check_catch,5,38408,5,wild rowboat,0,0,1
worker_136,memory_check_catch,6,38408,6,tall jockey,1,0,0
worker_136,memory_check_catch,7,38408,7,purple cell phone,0,0,1
worker_136,memory_check_catch,8,38408,8,expensive pork,1,0,0
worker_136,memory_check_catch,9,38408,9,beautiful hurricane,0,0,1
worker_197,memory_check_catch,0,19839,0,big shark,1,1,1
worker_197,memory_check_catch,1,19839,1,quiet village,1,1,1
worker_197,memory_check_catch,2,19839,2,purple moth,0,0,1
worker_197,memory_check_catch,3,19839,3,green fruit cake,0,0,1
worker_197,memory_check_catch,4,19839,4,soft carpet,1,1,1
worker_197,memory_check_catch,5,19839,5,beautiful chihuahua,0,0,1
worker_197,memory_check_catch,6,19839,6,wild thunderstorm,0,0,1
worker_197,memory_check_catch,7,19839,7,shiny bass guitar,0,0,1
worker_197,memory_check_catch,8,19839,8,tall penguin,1,1,1
worker_197,memory_check_catch,9,19839,9,light parrot,1,1,1
worker_158,memory_check_catch,0,30694,0,green steak,0,0,1
worker_158,memory_check_catch,1,30694,1,cold shopping mall,1,0,0
worker_158,memory_check_catch,2,30694,2,purple cat,0,0,1
worker_158,memory_check_catch,3,30694,3,hot smoothie,1,0,0
worker_158,memory_check_catch,4,30694,4,warm soup,1,0,0
worker_158,memory_check_catch,5,30694,5,light white paint,1,0,0
worker_158,memory_check_catch,6,30694,6,shiny panther,0,0,1
worker_158,memory_check_catch,7,30694,7,small herring,1,0,0
worker_158,memory_check_catch,8,30694,8,wild wall paint,0,0,1
worker_158,memory_check_catch,9,30694,9,beautiful hurricane,0,0,1
worker_131,memory_check_catch,0,33091,0,shiny relay race,0,0,1
worker_131,memory_check_catch,1,33091,1,light tiger,1,1,1
worker_131,memory_check_catch,2,33091,2,wild street,0,0,1
worker_131,memory_check_catch,3,33091,3,beautiful jogger,0,0,1
worker_131,memory_check_catch,4,33091,4,heavy laptop,1,0,0
worker_131,memory_check_catch,5,33091,5,light pen,1,0,0
worker_131,memory_check_catch,6,33091,6,cold winter,1,1,1
worker_131,memory_check_catch,7,33091,7,purple pansy,0,0,1
worker_131,memory_check_catch,8,33091,8,light motorcycle,1,1,1
worker_131,memory_check_catch,9,33091,9,green daisy,0,0,1
worker_384,memory_check_catch,0,36657,0,short bonsai tree,1,1,1
worker_384,memory_check_catch,1,36657,1,wild golfer,0,1,0
worker_384,memory_check_catch,2,36657,2,hard carpet,1,1,1
worker_384,memory_check_catch,3,36657,3,wide creek,1,0,0
worker_384,memory_check_catch,4,36657,4,cheap bronze,1,0,0
worker_384,memory_check_catch,5,36657,5,green fall,0,0,1
worker_384,memory_check_catch,6,36657,6,purple villa,0,0,1
worker_384,memory_check_catch,7,36657,7,wide street,1,1,1
worker_384,memory_check_catch,8,36657,8,shiny sedan,0,0,1
worker_384,memory_check_catch,9,36657,9,beautiful tractor,0,0,1
worker_004,memory_check_catch,0,24686,0,loud cat,1,1,1
worker_004,memory_check_catch,1,24686,1,expensive coat,1,1,1
worker_004,memory_check_catch,2,24686,2,beautiful skyscraper,0,0,1
worker_004,memory_check_catch,3,24686,3,weak condo,1,0,0
worker_004,memory_check_catch,4,24686,4,slow helicopter,1,1,1
worker_004,memory_check_catch,5,24687,5,green great dane,0,0,1
worker_004,memory_check_catch,6,24687,6,wild boulevard,0,0,1
worker_004,memory_check_catch,7,24687,7,shiny monkey,0,0,1
worker_004,memory_check_catch,8,24687,8,purple hamster,0,0,1
worker_004,memory_check_catch,9,24687,9,light pen,1,1,1
worker_172,memory_check_catch,0,5415,0,necklace: shiny/dull,0,0,1
worker_172,memory_check_catch,1,5415,1,shirt: purple/orange,0,1,0
worker_172,memory_check_catch,2,5415,2,guitar: green/blue,0,0,1
worker_172,memory_check_catch,3,5415,3,tent: strong/weak,1,0,0
worker_172,memory_check_catch,4,5415,4,spider: big/small,1,0,0
worker_172,memory_check_catch,5,5416,5,apartment: expensive/cheap,1,1,1
worker_172,memory_check_catch,6,5416,6,jolly rancher: hard/soft,1,0,0
worker_172,memory_check_catch,7,5416,7,watch: beautiful/ugly,0,0,1
worker_172,memory_check_catch,8,5416,8,animal: wild/tame,0,0,1
worker_172,memory_check_catch,9,5416,9,watermelon: heavy/light,1,0,0
worker_162,memory_check_catch,0,12534,0,Chinese restaurant: expensive/cheap,1,1,1
worker_162,memory_check_catch,1,12534,1,horn: loud/quiet,1,1,1
worker_162,memory_check_catch,2,12534,2,ukelele: loud/quiet,1,1,1
worker_162,memory_check_catch,3,12534,3,ice cream: warm/cold,1,1,1
worker_162,memory_check_catch,4,12534,4,shirt: purple/orange,0,0,1
worker_162,memory_check_catch,5,12534,5,animal: wild/tame,0,0,1
worker_162,memory_check_catch,6,12534,6,necklace: shiny/dull,0,0,1
worker_162,memory_check_catch,7,12534,7,guitar: green/blue,0,0,1
worker_162,memory_check_catch,8,12534,8,instant pot: quick/slow,1,1,1
worker_162,memory_check_catch,9,12534,9,watch: beautiful/ugly,0,0,1
worker_070,memory_check_catch,0,35754,0,boysenberries: expensive/cheap,1,0,0
worker_070,memory_check_catch,1,35754,1,watch: beautiful/ugly,0,0,1
worker_070,memory_check_catch,2,35754,2,song: long/short,1,0,0
worker_070,memory_check_catch,3,35754,3,shirt: purple/orange,0,0,1
worker_070,memory_check_catch,4,35754,4,guitar: green/blue,0,0,1
worker_070,memory_check_catch,5,35755,5,soup: warm/cold,1,0,0
worker_070,memory_check_catch,6,35755,6,necklace: shiny/dull,0,0,1
worker_070,memory_check_catch,7,35755,7,strip mall: tall/short,1,0,0
worker_070,memory_check_catch,8,35755,8,animal: wild/tame,0,1,0
worker_070,memory_check_catch,9,35755,9,mushroom: hard/soft,1,0,0
worker_069,memory_check_catch,0,14772,0,watch: beautiful/ugly,0,0,1
worker_069,memory_check_catch,1,14772,1,guitar: green/blue,0,0,1
worker_069,memory_check_catch,2,14772,2,necklace: shiny/dull,0,0,1
worker_069,memory_check_catch,3,14772,3,rowboat: loud/quiet,1,1,1
worker_069,memory_check_catch,4,14772,4,shirt: purple/orange,0,0,1
worker_069,memory_check_catch,5,14772,5,cell phone: heavy/light,1,0,0
worker_069,memory_check_catch,6,14772,6,animal: wild/tame,0,1,0
worker_069,memory_check_catch,7,14772,7,rooster: loud/quiet,1,1,1
worker_069,memory_check_catch,8,14772,8,teenager: tall/short,1,1,1
worker_069,memory_check_catch,9,14772,9,mango: hard/soft,1,1,1
worker_029,memory_check_catch,0,18787,0,guitar: green/blue,0,0,1
worker_029,memory_check_catch,1,18787,1,mushroom: hard/soft,1,1,1
worker_029,memory_check_catch,2,18787,2,dachshund: long/short,1,1,1
worker_029,memory_check_catch,3,18787,3,necklace: shiny/dull,0,0,1
worker_029,memory_check_catch,4,18787,4,animal: wild/tame,0,0,1
worker_029,memory_check_catch,5,18788,5,shirt: purple/orange,0,0,1
worker_029,memory_check_catch,6,18788,6,turtle: quick/slow,1,1,1
worker_029,memory_check_catch,7,18788,7,summer: warm/cold,1,1,1
worker_029,memory_check_catch,8,18788,8,town: noisy/quiet,1,1,1
worker_029,memory_check_catch,9,18788,9,watch: beautiful/ugly,0,0,1
worker_272,memory_check_catch,0,14294,0,watch: beautiful/ugly,0,0,1
worker_272,memory_check_catch,1,14294,1,animal: wild/tame,0,0,1
worker_272,memory_check_catch,2,14294,2,winter: warm/cold,1,1,1
worker_272,memory_check_catch,3,14294,3,giraffe: tall/short,1,1,1
worker_272,memory_check_catch,4,14294,4,boulevard: wide/narrow,1,1,1
worker_272,memory_check_catch,5,14294,5,shirt: purple/orange,0,0,1
worker_272,memory_check_catch,6,14294,6,necklace: shiny/dull,0,0,1
worker_272,memory_check_catch,7,14294,7,guitar: green/blue,0,0,1
worker_272,memory_check_catch,8,14294,8,wall paint: strong/weak,1,1,1
worker_272,memory_check_catch,9,14294,9,turtle: quick/slow,1,1,1
worker_363,memory_check_catch,0,10657,0,truck: fast/slow,1,0,0
worker_363,memory_check_catch,1,10657,1,necklace: shiny/dull,0,0,1
worker_363,memory_check_catch,2,10657,2,shirt: purple/orange,0,1,0
worker_363,memory_check_catch,3,10657,3,spider: big/small,1,0,0
worker_363,memory_check_catch,4,10657,4,watch: beautiful/ugly,0,0,1
worker_363,memory_check_catch,5,10657,5,elephant: big/small,1,0,0
worker_363,memory_check_catch,6,10657,6,guitar: green/blue,0,1,0
worker_363,memory_check_catch,7,10657,7,chair: heavy/light,1,0,0
worker_363,memory_check_catch,8,10657,8,skyscraper: tall/short,1,1,1
worker_363,memory_check_catch,9,10657,9,animal: wild/tame,0,0,1
worker_007,memory_check_catch,0,18334,0,condo: strong/weak,1,1,1
worker_007,memory_check_catch,1,18334,1,necklace: shiny/dull,0,0,1
worker_007,memory_check_catch,2,18334,2,library: noisy/quiet,1,1,1
worker_007,memory_check_catch,3,18334,3,oven: big/small,1,1,1
worker_007,memory_check_catch,4,18334,4,frying pan: quick/slow,1,1,1
worker_007,memory_check_catch,5,18334,5,guitar: green/blue,0,0,1
worker_007,memory_check_catch,6,18334,6,shirt: purple/orange,0,0,1
worker_007,memory_check_catch,7,18334,7,animal: wild/tame,0,0,1
worker_007,memory_check_catch,8,18334,8,shirt: expensive/cheap,1,1,1
worker_007,memory_check_catch,9,18334,9,watch: beautiful/ugly,0,0,1
worker_303,memory_check_catch,0,15808,0,watch: beautiful/ugly,0,0,1
worker_303,memory_check_catch,1,15808,1,monkey: tall/short,1,1,1
worker_303,memory_check_catch,2,15808,2,shirt: purple/orange,0,0,1
worker_303,memory_check_catch,3,15808,3,guitar: green/blue,0,0,1
worker_303,memory_check_catch,4,15808,4,finch: loud/quiet,1,1,1
worker_303,memory_check_catch,5,15809,5,necklace: shiny/dull,0,0,1
worker_303,memory_check_catch,6,15809,6,sedan: big/small,1,1,1
worker_303,memory_check_catch,7,15809,7,acoustic guitar: loud/quiet,1,1,1
worker_303,memory_check_catch,8,15809,8,animal: wild/tame,0,0,1
worker_303,memory_check_catch,9,15809,9,ant: big/small,1,1,1
worker_113,memory_check_catch,0,26300,0,refrigerator: big/small,1,1,1
worker_113,memory_check_catch,1,26300,1,cat: quick/slow,1,1,1
worker_113,memory_check_catch,2,26300,2,animal: wild/tame,0,0,1
worker_113,memory_check_catch,3,26301,3,dahlia: light/dark,1,1,1
worker_113,memory_check_catch,4,26301,4,watch: beautiful/ugly,0,0,1
worker_113,memory_check_catch,5,26301,5,plastic: expensive/cheap,1,1,1
worker_113,memory_check_catch,6,26301,6,necklace: shiny/dull,0,0,1
worker_113,memory_check_catch,7,26301,7,guitar: green/blue,0,0,1
worker_113,memory_check_catch,8,26301,8,speedboat: fast/slow,1,1,1
worker_113,memory_check_catch,9,26301,9,shirt: purple/orange,0,0,1
worker_371,memory_check_catch,0,11688,0,necklace: shiny/dull,0,0,1
worker_371,memory_check_catch,1,11688,1,oil paint: strong/weak,1,1,1
worker_371,memory_check_catch,2,11688,2,bedboard: hard/soft,1,1,1
worker_371,memory_check_catch,3,11688,3,sloth: fast/slow,1,1,1
worker_371,memory_check_catch,4,11688,4,shirt: purple/orange,0,0,1
worker_371,memory_check_catch,5,11688,5,watch: beautiful/ugly,0,0,1
worker_371,memory_check_catch,6,11688,6,animal: wild/tame,0,0,1
worker_371,memory_check_catch,7,11688,7,electric car: loud/quiet,1,1,1
worker_371,memory_check_catch,8,11688,8,rabbit: quick/slow,1,1,1
worker_371,memory_check_catch,9,11688,9,guitar: green/blue,0,0,1
worker_379,memory_check_catch,0,14060,0,watch: beautiful/ugly,0,0,1
worker_379,memory_check_catch,1,14060,1,necklace: shiny/dull,0,0,1
worker_379,memory_check_catch,2,14060,2,party: noisy/quiet,1,1,1
worker_379,memory_check_catch,3,14060,3,shirt: purple/orange,0,0,1
worker_379,memory_check_catch,4,14060,4,animal: wild/tame,0,0,1
worker_379,memory_check_catch,5,14060,5,guitar: green/blue,0,0,1
worker_379,memory_check_catch,6,14060,6,smartcar: long/short,1,1,1
worker_379,memory_check_catch,7,14060,7,cotton: heavy/light,1,1,1
worker_379,memory_check_catch,8,14060,8,sailboat: fast/slow,1,1,1
worker_379,memory_check_catch,9,14060,9,ant: big/small,1,1,1
worker_252,memory_check_catch,0,29713,0,helicopter: fast/slow,1,1,1
worker_252,memory_check_catch,1,29713,1,jolly rancher: hard/soft,1,1,1
worker_252,memory_check_catch,2,29713,2,guitar: green/blue,0,0,1
worker_252,memory_check_catch,3,29713,3,animal: wild/tame,0,0,1
worker_252,memory_check_catch,4,29713,4,salt: expensive/cheap,1,1,1
worker_252,memory_check_catch,5,29713,5,watch: beautiful/ugly,0,0,1
worker_252,memory_check_catch,6,29713,6,necklace: shiny/dull,0,0,1
worker_252,memory_check_catch,7,29713,7,child: quick/slow,1,1,1
worker_252,memory_check_catch,8,29713,8,shirt: purple/orange,0,0,1
worker_252,memory_check_catch,9,29713,9,cat: quick/slow,1,1,1
worker_046,memory_check_catch,0,15023,0,animal: wild/tame,0,0,1
worker_046,memory_check_catch,1,15023,1,cell phone: heavy/light,1,1,1
worker_046,memory_check_catch,2,15023,2,tile: hard/soft,1,1,1
worker_046,memory_check_catch,3,15023,3,necklace: shiny/dull,0,0,1
worker_046,memory_check_catch,4,15023,4,ukelele: loud/quiet,1,1,1
worker_046,memory_check_catch,5,15023,5,watch: beautiful/ugly,0,0,1
worker_046,memory_check_catch,6,15023,6,Korean restaurant: expensive/cheap,1,1,1
worker_046,memory_check_catch,7,15023,7,toaster: big/small,1,1,1
worker_046,memory_check_catch,8,15023,8,guitar: green/blue,0,0,1
worker_046,memory_check_catch,9,15023,9,shirt: purple/orange,0,0,1
worker_376,memory_check_catch,0,28271,0,shirt: purple/orange,0,0,1
worker_376,memory_check_catch,1,28271,1,piece of chalk: light/dark,1,1,1
worker_376,memory_check_catch,2,28271,2,necklace: shiny/dull,0,0,1
worker_376,memory_check_catch,3,28271,3,movie: long/short,1,1,1
worker_376,memory_check_catch,4,28271,4,monkey: heavy/light,1,1,1
worker_376,memory_check_catch,5,28271,5,watch: beautiful/ugly,0,0,1
worker_376,memory_check_catch,6,28271,6,guitar: green/blue,0,0,1
worker_376,memory_check_catch,7,28271,7,animal: wild/tame,0,0,1
worker_376,memory_check_catch,8,28271,8,daisy: light/dark,1,1,1
worker_376,memory_check_catch,9,28271,9,adult: heavy/light,1,1,1
worker_352,memory_check_catch,0,17144,0,sailboat: fast/slow,1,1,1
worker_352,memory_check_catch,1,17144,1,boysenberries: expensive/cheap,1,1,1
worker_352,memory_check_catch,2,17144,2,watch: beautiful/ugly,0,0,1
worker_352,memory_check_catch,3,17144,3,child: tall/short,1,1,1
worker_352,memory_check_catch,4,17144,4,guitar: green/blue,0,0,1
worker_352,memory_check_catch,5,17144,5,shirt: purple/orange,0,0,1
worker_352,memory_check_catch,6,17144,6,necklace: shiny/dull,0,0,1
